Date and Time:                Tue Jan 18 15:13:01.000 2022
Software Version:             4.31.30023.0
Temperature (C):              -50
Model:                        DU420_BVF
Data Type:                    Counts (Bg Corrected)
Acquisition Mode:             Accumulate
Trigger Mode:                 Internal
Exposure Time (secs):         0.09999
Accumulate Cycle Time (secs): 0.09999
Frequency (Hz):               10.001
Number of Accumulations:      1000
Readout Mode:                 Full Vertical Binning
Horizontal binning:           1
Extended Dynamic Range:       off
Horizontally flipped:         false
Vertical Shift Speed (usecs): 8.25
Pixel Readout Time (usecs):   30.303
Serial Number:                22942
Pre-Amplifier Gain:           1.000000
Spurious Noise Filter Mode:   No Filter
Photon counted:               false
Data Averaging Filter Mode:   No Filter
KY328i:
Serial Number:                
Wavelength (nm):              749.812
Grating Groove Density (l/mm):150.012
Grating Blaze:                500nm
Output Flipper Port:          Direct
Filter:                       5-664 LP



500,-232.575
500.37564,-347.145
500.75131,-263.099
501.12695,-185.262
501.50262,-319.906
501.87827,-328.819
502.25394,-372.592
502.62958,-363.864
503.00525,-202.063
503.38089,-313.185
503.75656,-367.578
504.13223,-240.252
504.50787,-248.97
504.88354,-384.805
505.25919,-486.296
505.63486,-447.71
506.0105,-339.366
506.38617,-339.955
506.76181,-348.617
507.13748,-264.248
507.51312,-291.416
507.88879,-298.278
508.26443,-210.963
508.64011,-146.35
509.01578,-249.394
509.39142,-381.522
509.76709,-384.246
510.14273,-261.702
510.5184,-137.862
510.89404,-173.227
511.26971,-311.13
511.64536,-258.997
512.021,-181.693
512.39667,-176.119
512.77234,-230.058
513.14801,-369.444
513.52368,-274.505
513.89929,-109.53
514.27496,-292.581
514.65063,-335.636
515.02631,-300.491
515.40192,-331.653
515.77759,-267.239
516.15326,-170.498
516.52893,-234.123
516.90454,-427.774
517.28021,-382.666
517.65588,-305.304
518.03156,-286.731
518.40723,-234.682
518.78284,-245.073
519.15851,-281.753
519.53418,-242.437
519.90985,-135.392
520.28546,-238.617
520.66113,-344.866
521.0368,-256.925
521.41248,-181.893
521.78809,-78.3018
522.16376,-45.3544
522.53943,-142.456
522.9151,-109.745
523.29077,-117.301
523.66638,-199.062
524.04205,-185.896
524.41772,-161.112
524.7934,-125.95
525.16901,-142.862
525.54468,-272.116
525.92035,-84.8705
526.29602,20.1309
526.67169,-230.607
527.0473,-132.148
527.42297,-50.1893
527.79865,-199.789
528.17432,-321.119
528.54993,-202.683
528.9256,-67.7593
529.30127,-92.749
529.67694,-180.244
530.05255,-195.979
530.42822,-131.349
530.80389,-53.1393
531.17957,-24.7066
531.55524,-89.6224
531.93085,-134.239
532.30652,-67.7873
532.68219,-38.1129
533.05786,-163.033
533.43347,-208.195
533.80914,17.8775
534.18481,-37.2108
534.56049,-166.926
534.9361,-99.6506
535.31177,2.84869
535.68744,117.919
536.06311,77.0944
536.43878,-77.6583
536.81439,42.6244
537.19006,79.781
537.56573,-37.8937
537.94141,-33.9184
538.31702,87.2762
538.69269,95.0908
539.06836,-11.1209
539.44403,14.0765
539.81964,152.043
540.19531,143.009
540.57098,13.5859
540.94666,129.32
541.32233,162.282
541.69794,139.086
542.07361,216.457
542.44928,144.891
542.82495,209.688
543.20056,340.553
543.57623,204.222
543.9519,110.822
544.32758,174.732
544.70325,268.676
545.07886,262.266
545.45453,301.454
545.8302,344.377
546.20587,326.682
546.58148,362.071
546.95715,365.989
547.33282,360.236
547.7085,430.371
548.08411,481.607
548.45978,379.937
548.83545,274.73
549.21112,373.606
549.58679,302.717
549.9624,332.768
550.33807,542.551
550.71375,431.182
551.08942,464.718
551.46503,673.67
551.8407,741.895
552.21637,720.392
552.59204,827.827
552.96765,1008.34
553.34332,1123.84
553.71899,1490.75
554.09467,2034
554.47034,2646.16
554.84595,3450.86
555.22162,4531.1
555.59729,5910.62
555.97296,7717.65
556.34857,10133.8
556.72424,12751.6
557.09991,15640.6
557.47559,19045.6
557.85126,22518.3
558.22687,26012.5
558.60254,29377.9
558.97821,32289.3
559.35388,34872.3
559.72949,37456.4
560.10516,39909
560.48083,41641.6
560.85651,43013.5
561.23212,44398.2
561.60779,45643.4
561.98346,46227.4
562.35913,46800.5
562.7348,47541.2
563.11041,48101
563.48608,48807.7
563.86176,49683.5
564.23743,50916.6
564.61304,52865.2
564.98871,55192.1
565.36438,58305.2
565.74005,62717.9
566.11566,68081.2
566.49133,73448.4
566.867,78383.5
567.24268,82816.9
567.61835,86368.3
567.99396,88921.8
568.36963,90652.3
568.7453,91760
569.12097,92129
569.49658,92248.4
569.87225,92197.4
570.24792,91391.2
570.6236,90449.2
570.99921,89499.1
571.37488,88373.2
571.75055,87329.6
572.12622,86521.8
572.50189,85474.8
572.8775,83910.6
573.25317,82947.3
573.62885,82059.4
574.00452,81076
574.38013,80718.2
574.7558,80345.4
575.13147,79944.6
575.50714,79751.5
575.88281,79607.3
576.25842,79469.9
576.63409,79252.7
577.00977,78891
577.38544,78484.6
577.76105,78078.5
578.13672,77499.4
578.51239,76668.4
578.88806,76169.7
579.26367,75948.7
579.63934,75516.7
580.01501,74644.8
580.39069,74220.1
580.76636,74100.3
581.14197,73614
581.51764,72710.6
581.89331,71833
582.26898,71198.2
582.64459,70561.6
583.02026,69415.7
583.39594,67877.5
583.77161,66307.8
584.14722,64808.6
584.52289,63154
584.89856,61215.9
585.27423,59075.1
585.6499,57107.1
586.02551,55140.4
586.40118,53301.2
586.77686,51772.6
587.15253,50119.1
587.52814,48524.4
587.90381,47186.4
588.27948,46178.6
588.65515,45435.2
589.03076,44677.9
589.40643,43937.4
589.7821,43551.1
590.15778,43646.4
590.53345,43733.8
590.90906,43563.5
591.28473,43642.7
591.6604,43685.3
592.03607,43292.1
592.41168,42466.3
592.78735,41265.8
593.16302,39759.1
593.5387,37917.5
593.91437,35423
594.28998,32696.9
594.66565,30042.3
595.04132,27417.3
595.41699,25020
595.7926,22791.4
596.16827,20780.7
596.54395,19145.7
596.91962,17735.8
597.29523,16415.3
597.6709,15351.3
598.04657,14627.8
598.42224,13841.8
598.79791,13239.3
599.17352,12866
599.54919,12487.6
599.92487,12122.9
600.30054,11904.5
600.67615,11742.7
601.05182,11388.6
601.42749,11213.5
601.80316,11055.5
602.17877,10548.8
602.55444,10078.9
602.93011,9728.66
603.30579,9138.78
603.68146,8244.21
604.05707,7449.68
604.43274,6701.28
604.80841,5885.92
605.18408,5078.55
605.55969,4282.83
605.93536,3549.15
606.31104,2914.01
606.68671,2306.61
607.06238,1863.67
607.43799,1623.72
607.81366,1300.53
608.18933,1153.46
608.565,1069.86
608.94061,747.414
609.31628,708.484
609.69196,711.928
610.06763,504.645
610.44324,396.188
610.81891,369.923
611.19458,378.448
611.57025,374.114
611.94592,260.611
612.32153,238.537
612.6972,257.161
613.07288,201.752
613.44855,264.127
613.82416,248.4
614.19983,95.7105
614.5755,92.6023
614.95117,155.233
615.32678,130.975
615.70245,110.418
616.07813,132.679
616.4538,89.0255
616.82947,123.128
617.20508,268.959
617.58075,218.594
617.95642,101.861
618.33209,83.3599
618.7077,85.163
619.08337,-15.7393
619.45905,-9.49917
619.83472,122.148
620.21033,82.9163
620.586,96.9137
620.96167,81.1208
621.33734,12.6564
621.71301,204.642
622.08862,178.793
622.46429,-56.3655
622.83997,-19.7288
623.21564,79.3266
623.59125,132.313
623.96692,151.558
624.34259,35.0108
624.71826,6.83283
625.09393,121.716
625.46954,146.128
625.84521,-14.5674
626.22089,-81.7466
626.59656,-105.796
626.97217,-132.217
627.34784,60.0107
627.72351,40.0871
628.09918,-223.031
628.47479,-237.634
628.85046,41.4684
629.22614,79.3723
629.60181,-107.419
629.97748,-6.20883
630.35309,4.00282
630.72876,53.4202
631.10443,197.043
631.4801,27.9887
631.85571,-169.251
632.23138,-111.919
632.60706,64.5299
632.98273,-88.5505
633.35834,-107.392
633.73401,44.2165
634.10968,-26.2612
634.48535,-225.998
634.86102,-270.941
635.23663,-112.571
635.6123,3.49222
635.98798,-81.7286
636.36365,-116.977
636.73926,-44.5269
637.11493,-146.191
637.4906,10.4935
637.86627,130.408
638.24188,-92.2563
638.61755,-72.3606
638.99323,78.7189
639.3689,54.1715
639.74457,-128.658
640.12018,16.2636
640.49585,97.7732
640.87152,6.60019
641.24719,87.6727
641.6228,24.794
641.99847,-44.2331
642.37415,13.7473
642.74982,0.130162
643.12549,-4.20383
643.5011,10.2322
643.87677,-35.2456
644.25244,-147.322
644.62811,-61.5673
645.00372,145.548
645.37939,167.772
645.75507,-1.99724
646.13074,-118.87
646.50635,-85.8747
646.88202,-51.4809
647.25769,-132.948
647.63336,-100.439
648.00903,80.3821
648.38464,101.156
648.76031,133.387
649.13599,76.3708
649.51166,-72.4897
649.88727,81.8471
650.26294,103.009
650.63861,-37.6814
651.01428,-26.2394
651.38989,12.4439
651.76556,-71.3743
652.14124,-56.9563
652.51691,248.555
652.89258,110.036
653.26819,-110.793
653.64386,-27.9643
654.01953,39.2973
654.3952,46.6077
654.77081,10.9308
655.14648,-42.6782
655.52216,-63.1551
655.89783,-9.81014
656.2735,7.99308
656.64911,-42.0157
657.02478,106.459
657.40045,116.209
657.77612,-21.8637
658.15173,35.0749
658.5274,58.7884
658.90308,67.4726
659.27875,115.372
659.65436,101.083
660.03003,-10.7393
660.4057,-108.526
660.78137,-94.4606
661.15704,-21.9842
661.53265,57.3126
661.90833,110.776
662.284,101.637
662.65967,-8.51515
663.03528,-87.9239
663.41095,-101.404
663.78662,-98.0903
664.16229,28.7162
664.5379,80.201
664.91357,-5.93506
665.28925,-28.081
665.66492,-114.668
666.04059,-92.762
666.4162,94.0089
666.79187,70.025
667.16754,-36.551
667.54321,-136.739
667.91882,-164.729
668.29449,71.4848
668.67017,43.6529
669.04584,-159.7
669.42145,-19.0757
669.79712,-41.462
670.17279,-69.5936
670.54846,8.99273
670.92413,-84.0567
671.29974,-135.63
671.67542,-54.3835
672.05109,-12.6461
672.42676,-196.261
672.80237,-83.2254
673.17804,65.8501
673.55371,-151.832
673.92938,-92.9751
674.30505,71.828
674.68066,87.4298
675.05634,-9.54957
675.43201,-76.7728
675.80768,-3.06172
676.18329,74.2297
676.55896,-69.4739
676.93463,-82.6889
677.3103,98.0932
677.68591,248.116
678.06158,169.571
678.43726,50.7747
678.81293,-27.7903
679.1886,-91.9725
679.56421,-88.6663
679.93988,-102.539
680.31555,-98.2122
680.69122,7.92284
681.06683,41.899
681.4425,22.8959
681.81818,29.7702
682.19385,33.3991
682.56946,-106.736
682.94513,-30.1786
683.3208,261.708
683.69647,78.7247
684.07214,-9.11829
684.44775,112.819
684.82343,95.47
685.1991,-73.8976
685.57477,-15.6649
685.95038,134.07
686.32605,3.53707
686.70172,24.0768
687.07739,138.567
687.453,126.788
687.82867,-3.357
688.20435,10.1146
688.58002,54.9055
688.95569,14.0876
689.3313,52.468
689.70697,58.1227
690.08264,101.445
690.45831,246.086
690.83392,254.157
691.20959,240.999
691.58527,195.562
691.96094,10.3063
692.33661,-93.4202
692.71222,25.3008
693.08789,167.019
693.46356,33.694
693.83923,-6.20512
694.21484,127.965
694.59052,200.595
694.96619,24.2562
695.34186,16.6187
695.71747,132.625
696.09314,120.55
696.46881,128.219
696.84448,109.666
697.22015,57.7936
697.59576,46.5926
697.97144,80.6001
698.34711,126.321
698.72278,154.467
699.09839,132.05
699.47406,-8.17497
699.84973,-30.8817
700.2254,131.768
700.60101,137.299
700.97668,-34.5683
701.35236,-80.2533
701.72803,101.89
702.1037,93.6735
702.47931,189.086
702.85498,286.117
703.23065,89.7719
703.60632,109.328
703.98193,245.47
704.3576,273.613
704.73328,216.903
705.10895,193.408
705.48462,168.662
705.86023,118.907
706.2359,135.868
706.61157,190.602
706.98724,179.375
707.36285,106.322
707.73853,138.078
708.1142,49.6188
708.48987,-27.7679
708.86548,165.959
709.24115,269.694
709.61682,321.508
709.99249,344.958
710.36816,234.918
710.74377,198.982
711.11945,228.378
711.49512,252.381
711.87079,299.914
712.2464,322.617
712.62207,342.906
712.99774,351.79
713.37341,234.382
713.74902,163.637
714.12469,220.01
714.50037,280.42
714.87604,191.632
715.25171,190.147
715.62732,304.663
716.00299,286.055
716.37866,246.036
716.75433,326.181
717.12994,426.712
717.50562,289.968
717.88129,181.81
718.25696,294.262
718.63257,460.334
719.00824,295.409
719.38391,196.436
719.75958,298.38
720.13525,362.898
720.51086,329.604
720.88654,356.726
721.26221,375.666
721.63788,218.146
722.01349,283.572
722.38916,378.316
722.76483,244.39
723.1405,75.9455
723.51617,197.217
723.89178,343.615
724.26746,185.577
724.64313,5.30285
725.0188,205.389
725.39441,349.353
725.77008,35.9285
726.14575,220.657
726.52142,256.536
726.89703,0.892812
727.27271,166.106
727.64838,310.182
728.02405,204.932
728.39972,103.63
728.77533,332.073
729.151,300.824
729.52667,137.733
729.90234,171.02
730.27795,119.098
730.65363,22.9758
731.0293,21.5211
731.40497,142.744
731.78058,220.391
732.15625,145.916
732.53192,88.9442
732.90759,243.88
733.28326,240.988
733.65887,163.601
734.03455,203.18
734.41022,307.116
734.78589,347.018
735.1615,260.947
735.53717,151.108
735.91284,214.651
736.28851,247.25
736.66412,185.508
737.03979,108.648
737.41547,-14.7178
737.79114,-13.9184
738.16681,144.204
738.54242,279.211
738.91809,261.467
739.29376,137.967
739.66943,97.4984
740.04504,262.08
740.42072,298.41
740.79639,229.543
741.17206,220.97
741.54773,193.106
741.92334,38.0896
742.29901,23.7057
742.67468,267.205
743.05035,156.227
743.42596,147.754
743.80164,296.975
744.17731,161.036
744.55298,140.113
744.92859,295.292
745.30426,441.024
745.67993,414.269
746.0556,208.441
746.43127,129.967
746.80688,282.891
747.18256,273.959
747.55823,134.336
747.9339,196.171
748.30951,455.582
748.68518,200.68
749.06085,-28.0861
749.43652,105.032
749.81213,288.065
750.18781,336.505
750.56348,293.527
750.93915,279.697
751.31482,336.153
751.69043,331.481
752.0661,238.002
752.44177,169.589
752.81744,259.632
753.19305,350.507
753.56873,313.119
753.9444,210.913
754.32007,251.5
754.69574,271.275
755.07135,227.054
755.44702,252.764
755.82269,291.035
756.19836,227.583
756.57397,154.816
756.94965,256.034
757.32532,210.967
757.70099,184.922
758.0766,278.451
758.45227,136.916
758.82794,102.72
759.20361,176.916
759.57928,172.919
759.9549,260.748
760.33057,294.176
760.70624,235.642
761.08191,215.823
761.45752,228.582
761.83319,217.465
762.20886,177.566
762.58453,159.593
762.96014,152.998
763.33582,175.06
763.71149,212.791
764.08716,190.263
764.46283,111.122
764.83844,120.854
765.21411,223.356
765.58978,123.52
765.96545,184.132
766.34106,343.303
766.71674,252.98
767.09241,273.076
767.46808,326.501
767.84369,355.189
768.21936,463.361
768.59503,368.979
768.9707,153.117
769.34637,95.592
769.72198,276.511
770.09766,315.333
770.47333,256.822
770.849,313.178
771.22461,325.09
771.60028,287.863
771.97595,228.587
772.35162,177.361
772.72729,219.114
773.10291,288.875
773.47858,351.42
773.85425,417.694
774.22992,336.171
774.60553,220.732
774.9812,182.807
775.35687,159.825
775.73254,296.845
776.10815,372.315
776.48383,226.051
776.8595,242.515
777.23517,349.419
777.61084,334.663
777.98645,190.984
778.36212,235.043
778.73779,257.06
779.11346,167.364
779.48907,161.856
779.86475,133.656
780.24042,177.721
780.61609,280.219
780.9917,197.324
781.36737,104.607
781.74304,122.878
782.11871,190.085
782.49438,163.096
782.87,119.575
783.24567,157.268
783.62134,227.204
783.99701,128.274
784.37262,93.373
784.74829,160.328
785.12396,124.468
785.49963,212.483
785.87524,323.609
786.25092,330.892
786.62659,317.111
787.00226,227.523
787.37793,178.751
787.75354,282.248
788.12921,399.104
788.50488,362.923
788.88055,238.967
789.25616,212.687
789.63184,286.18
790.00751,323.392
790.38318,306.283
790.75885,300.218
791.13446,183.451
791.51013,162.993
791.8858,284.856
792.26147,255.755
792.63708,225.27
793.01276,303.896
793.38843,353.611
793.7641,177.029
794.13971,155.377
794.51538,309.39
794.89105,347.465
795.26672,223.991
795.6424,149.539
796.01801,184.549
796.39368,238.835
796.76935,278.204
797.14502,191.471
797.52063,155.661
797.8963,265.231
798.27197,301.099
798.64764,288.802
799.02325,268.6
799.39893,230.814
799.7746,288.251
800.15027,324.621
800.52594,219.407
800.90155,204.678
801.27722,344.711
801.65289,391.952
802.02856,194.297
802.40417,67.0874
802.77985,163.613
803.15552,332.629
803.53119,280.967
803.90686,279.53
804.28247,300.492
804.65814,231.557
805.03381,231.912
805.40948,151.105
805.7851,164.24
806.16077,319.695
806.53644,219.327
806.91211,204.119
807.28772,291.402
807.66339,288.014
808.03906,198.182
808.41473,185.242
808.79041,238.794
809.16602,270.522
809.54169,394.281
809.91736,417.298
810.29303,350.966
810.66864,371.747
811.04431,424.473
811.41998,419.021
811.79565,367.619
812.17126,413.218
812.54694,564.299
812.92261,541.461
813.29828,504.614
813.67395,565.946
814.04956,556.454
814.42523,572.11
814.8009,724.651
815.17657,731.97
815.55219,703.239
815.92786,842.936
816.30353,862.216
816.6792,828.097
817.05481,816.372
817.43048,838.226
817.80615,952.016
818.18182,991.405
818.5575,960.329
818.93311,1054.45
819.30878,1121.89
819.68445,1107.07
820.06012,1065.17
820.43573,1056.94
820.8114,1128.11
821.18707,1150.78
821.56274,1015.29
821.93842,982.147
822.31403,1035.55
822.6897,1035.65
823.06537,1047.69
823.44104,1038.79
823.81665,1019.79
824.19232,1053.27
824.56799,1095.64
824.94366,1065.67
825.31927,1174.72
825.69495,1556.63
826.07062,1700.45
826.44629,1977.05
826.82196,2579.48
827.19757,3078.43
827.57324,3572.25
827.94891,3878.05
828.32458,3925.43
828.7002,3904.14
829.07587,3883.78
829.45154,3926.69
829.82721,3998.93
830.20282,3989.59
830.57849,3996.64
830.95416,4160.21
831.32983,4458.35
831.70551,4668.33
832.08112,4985.83
832.45679,5371.58
832.83246,5518.51
833.20813,5547.28
833.58374,5499.06
833.95941,5442.69
834.33508,5597.22
834.71075,5931.82
835.08636,6123.69
835.46204,6118.64
835.83771,6233.68
836.21338,6511.94
836.58905,6962.25
836.96466,7446.12
837.34033,7719.84
837.716,8209.49
838.09167,8792.06
838.46729,9057.72
838.84296,9263.98
839.21863,9507.94
839.5943,9585.27
839.96997,9266.75
840.34558,8827
840.72125,8225.48
841.09692,7460.32
841.4726,6769.49
841.84821,6124.93
842.22388,5460.57
842.59955,4871.05
842.97522,4484.91
843.35083,3841.35
843.7265,3233.89
844.10217,3073.61
844.47784,3032.84
844.85352,3105.43
845.22913,3035.91
845.6048,2656.61
845.98047,2480.4
846.35614,2381.54
846.73175,2346.57
847.10742,2464.32
847.48309,2234.82
847.85876,1906.49
848.23438,1811.34
848.61005,1857.72
848.98572,1815.89
849.36139,1922.21
849.73706,2154.14
850.11267,2008.04
850.48834,2033.35
850.86401,2201.2
851.23969,2273.97
851.6153,2550.03
851.99097,2756.02
852.36664,2877.31
852.74231,3097.29
853.11798,3263.61
853.49359,3526.06
853.86926,3984.39
854.24493,4490.58
854.62061,4797.16
854.99622,5103.26
855.37189,5432.38
855.74756,5570.08
856.12323,6007.38
856.49884,6404.27
856.87451,6484.81
857.25018,6739.26
857.62585,6982.14
858.00153,7297.7
858.37714,7718.12
858.75281,7748.65
859.12848,7656.72
859.50415,7512.75
859.87976,7200.52
860.25543,7013.9
860.6311,6903.47
861.00677,6728.98
861.38239,6518.14
861.75806,6486.43
862.13373,6331.97
862.5094,6171.08
862.88507,6551.27
863.26068,6645.23
863.63635,6420.61
864.01202,6246.23
864.3877,6085.95
864.76331,5895.56
865.13898,5803.82
865.51465,5745.65
865.89032,5288.13
866.26593,5080.06
866.6416,5004.48
867.01727,4547.96
867.39294,4464.76
867.76862,4646.4
868.14423,4712.14
868.5199,4565.15
868.89557,4402.88
869.27124,4368.52
869.64685,4367.38
870.02252,4190.94
870.39819,4039.91
870.77386,3880.97
871.14954,3757.05
871.52515,3985.64
871.90082,4191.19
872.27649,4330.47
872.65216,4561.1
873.02777,4720.03
873.40344,4993.73
873.77911,5215.42
874.15479,5180.81
874.5304,5472.35
874.90607,5529.98
875.28174,5337.54
875.65741,5656.44
876.03308,6056.93
876.40869,6407.1
876.78436,6767.11
877.16003,7202.9
877.53571,8148.86
877.91132,9228.27
878.28699,9987.03
878.66266,10708.5
879.03833,11366.2
879.41394,12027.8
879.78961,12733.3
880.16528,13194
880.54095,13370.9
880.91663,13384
881.29224,13373.8
881.66791,13418.2
882.04358,13670.7
882.41925,14177.6
882.79486,14812
883.17053,15436.6
883.5462,16017.5
883.92188,16608.7
884.29749,17362.3
884.67316,18630.9
885.04883,20744.3
885.4245,24182.2
885.80017,29172.9
886.17578,33324.3
886.55145,35572.6
886.92712,36742.4
887.3028,37819
887.67841,38439.7
888.05408,38230.2
888.42975,37227.1
888.80542,35404.5
889.18109,33617.8
889.5567,32355.6
889.93237,31183.1
890.30804,29693.4
890.68372,27972.9
891.05933,26288.6
891.435,24773
891.81067,23556.3
892.18634,23042.7
892.56195,23222.1
892.93762,23274.3
893.31329,23438.9
893.68896,23390.2
894.06464,22682.9
894.44025,22121.5
894.81592,21847.9
895.19159,21657.2
895.56726,21226.8
895.94287,20125.9
896.31854,18875.9
896.69421,17981.4
897.06989,17363.8
897.4455,16962.9
897.82117,16964.9
898.19684,17578.1
898.57251,18688.1
898.94818,19607.9
899.32379,20261.2
899.69946,20653.2
900.07513,20257.4
900.45081,19845.8
900.82642,19368.8
901.20209,18219.9
901.57776,16923.8
901.95343,15979.7
902.3291,15054.4
902.70471,13762.9
903.08038,13470.1
903.45605,13931.7
903.83173,14336.1
904.20734,14483.9
904.58301,14648.1
904.95868,14904.2
905.33435,15141.8
905.70996,15275.7
906.08563,15389.1
906.4613,15525.7
906.83698,15670.6
907.21265,15842.5
907.58826,16227.4
907.96393,17479.7
908.3396,20381.7
908.71527,24919.8
909.09088,29331.9
909.46655,32026.6
909.84222,32680.2
910.2179,32001.3
910.59351,30702.5
910.96918,28951.4
911.34485,26640.5
911.72052,24640.5
912.09619,22850.6
912.4718,20862.4
912.84747,18926
913.22314,17265.3
913.59882,16041
913.97443,15229.9
914.3501,14593.8
914.72577,14296.8
915.10144,14215.7
915.47705,14037.2
915.85272,13863.4
916.22839,13462.1
916.60406,13016
916.97974,12997.3
917.35535,12932
917.73102,12694.3
918.10669,12504.7
918.48236,12592.6
918.85797,12898.8
919.23364,13562.9
919.60931,14986.6
919.98499,17504.8
920.36066,20485
920.73627,23090.1
921.11194,24828.3
921.48761,25756.3
921.86328,25876.9
922.23889,25303.3
922.61456,24337.2
922.99023,23362.8
923.36591,22540.3
923.74152,21657.7
924.11719,20413
924.49286,19098
924.86853,17800.6
925.2442,16540.8
925.61981,15620.9
925.99548,15754.6
926.37115,16380.7
926.74683,16642.8
927.12244,16694
927.49811,16802.5
927.87378,16732.7
928.24945,16271.8
928.62506,15947.6
929.00073,15691.7
929.3764,15328.3
929.75208,14846.4
930.12775,14303.3
930.50336,13740.1
930.87903,13094.4
931.2547,12247.5
931.63037,11266
932.00598,10553.8
932.38165,10430.4
932.75732,10796.4
933.133,11277.7
933.50867,11527.7
933.88428,11449.2
934.25995,11238
934.63562,10974.7
935.01129,10883.2
935.3869,10944.8
935.76257,10536.7
936.13824,10191.4
936.51392,9992.97
936.88953,9420.94
937.2652,8702.4
937.64087,8350.5
938.01654,8464.2
938.39221,8696.8
938.76782,9082.55
939.14349,9503.12
939.51917,9917.12
939.89484,10426.9
940.27045,10608.7
940.64612,10796
941.02179,11240.4
941.39746,11266.2
941.77307,11419.3
942.14874,11811.9
942.52441,11956.3
942.90009,11630.8
943.27576,11015.6
943.65137,10566.3
944.02704,10521.8
944.40271,10350.5
944.77838,10473.8
945.15399,10917.1
945.52966,11058
945.90533,11556.5
946.28101,12064.6
946.65662,12052.4
947.03229,11837.7
947.40796,11856.2
947.78363,11864.6
948.1593,11534.5
948.53491,11190.6
948.91058,10918.9
949.28625,10481
949.66193,9691.98
950.03754,8877.84
950.41321,8285.23
950.78888,7917.37
951.16455,7709.47
951.54022,7862.05
951.91583,8176.59
952.2915,8401.59
952.66718,8536.81
953.04285,8726.21
953.41846,8794.35
953.79413,8605.24
954.1698,8402.33
954.54547,8474.12
954.92108,8576.48
955.29675,8440.03
955.67242,8322.04
956.0481,7949.05
956.42377,7358.91
956.79938,6914.7
957.17505,6702.49
957.55072,6522.9
957.92639,6412.83
958.302,6615.86
958.67767,6973.17
959.05334,7100.3
959.42902,7114.05
959.80463,7488.73
960.1803,7578.28
960.55597,7441.43
960.93164,7432.38
961.30731,7493.47
961.68292,7550.27
962.05859,7455.44
962.43427,7089.35
962.80994,6539.61
963.18555,6158.14
963.56122,6018.74
963.93689,5959.18
964.31256,5999.34
964.68817,6248.63
965.06384,6673.11
965.43951,7073.77
965.81519,7301.16
966.19086,7339.16
966.56647,7387.98
966.94214,7617.98
967.31781,7524.85
967.69348,7446.04
968.06909,7686.14
968.44476,7751.96
968.82043,7814.54
969.19611,7757.57
969.57178,7438.24
969.94739,7267.29
970.32306,7335.5
970.69873,7078.64
971.0744,7618.74
971.45001,13665.5
971.82568,22018.1
972.20135,33815.4
972.57703,56124.9
972.95264,89207.8
973.32831,131434
973.70398,185552
974.07965,254573
974.45532,322448
974.83093,379847
975.2066,431747
975.58228,483016
975.95795,492245
976.33356,464680
976.70923,421897
977.0849,343638
977.46057,260382
977.83618,193240
978.21185,139697
978.58752,100482
978.9632,72766.1
979.33887,53472.9
979.71448,40694.1
980.09015,31550.2
980.46582,24951.5
980.84149,20541.7
981.2171,17657.1
981.59277,15787.7
981.96844,14592.5
982.34412,13932.6
982.71979,13860.7
983.0954,14424.4
983.47107,15639.8
983.84674,17099.8
984.22241,17792.6
984.59802,17548.1
984.97369,16603.8
985.34937,15317.6
985.72504,14088.5
986.10065,13026.2
986.47632,12003.2
986.85199,10956.8
987.22766,10290.1
987.60333,9948.36
987.97894,9581.85
988.35461,8989.52
988.73029,8529.49
989.10596,8237.76
989.48157,7907.52
989.85724,7462.21
990.23291,7128.48
990.60858,6825.23
990.98419,6402.03
991.35986,6070.15
991.73553,5726.72
992.11121,5388.84
992.48688,5132.96
992.86249,4769.05
993.23816,4777.09
993.61383,5218.58
993.9895,5586.97
994.36511,5971.55
994.74078,6441.26
995.11646,7071.15
995.49213,7922.6
995.86774,8696.85
996.24341,9428.15
996.61908,10154.8
996.99475,10585.7
997.37042,10726.9
997.74603,10585.5
998.1217,10199.8
998.49738,9734.24
998.87305,9019.92
999.24866,8116.75
999.62433,7272.88
1000,6480.58
