Date and Time:                Tue Jan 18 16:21:39.000 2022
Software Version:             4.31.30023.0
Temperature (C):              -50
Model:                        DU420_BVF
Data Type:                    Counts (Bg Corrected)
Acquisition Mode:             Accumulate
Trigger Mode:                 Internal
Exposure Time (secs):         0.09999
Accumulate Cycle Time (secs): 0.09999
Frequency (Hz):               10.001
Number of Accumulations:      1000
Readout Mode:                 Full Vertical Binning
Horizontal binning:           1
Extended Dynamic Range:       off
Horizontally flipped:         false
Vertical Shift Speed (usecs): 8.25
Pixel Readout Time (usecs):   30.303
Serial Number:                22942
Pre-Amplifier Gain:           1.000000
Spurious Noise Filter Mode:   No Filter
Photon counted:               false
Data Averaging Filter Mode:   No Filter
KY328i:
Serial Number:                
Wavelength (nm):              749.812
Grating Groove Density (l/mm):150.012
Grating Blaze:                500nm
Output Flipper Port:          Direct
Filter:                       5-664 LP



500,-610.701
500.37564,-892.646
500.75131,-862.243
501.12695,-735.519
501.50262,-819.511
501.87827,-672.648
502.25394,-649.022
502.62958,-740.958
503.00525,-697.684
503.38089,-736.613
503.75656,-763.583
504.13223,-712.761
504.50787,-705.481
504.88354,-845.651
505.25919,-987.664
505.63486,-935.639
506.0105,-711.152
506.38617,-706.328
506.76181,-740.122
507.13748,-595.377
507.51312,-673.675
507.88879,-730.129
508.26443,-677.354
508.64011,-678.041
509.01578,-667.218
509.39142,-709.917
509.76709,-743.839
510.14273,-639.707
510.5184,-742.415
510.89404,-774.616
511.26971,-585.406
511.64536,-660.339
512.021,-624.898
512.39667,-525.54
512.77234,-670.876
513.14801,-828.247
513.52368,-689.396
513.89929,-502.923
514.27496,-702.366
514.65063,-781.46
515.02631,-680.004
515.40192,-627.109
515.77759,-709.623
516.15326,-651.451
516.52893,-599.643
516.90454,-732.891
517.28021,-775.559
517.65588,-784.354
518.03156,-784.235
518.40723,-709.41
518.78284,-606.102
519.15851,-575.828
519.53418,-636.89
519.90985,-720.448
520.28546,-816.839
520.66113,-786.392
521.0368,-654.298
521.41248,-663.39
521.78809,-507.135
522.16376,-466.701
522.53943,-797.502
522.9151,-796.719
523.29077,-682.658
523.66638,-665.314
524.04205,-603.574
524.41772,-494.86
524.7934,-470.881
525.16901,-574.878
525.54468,-661.488
525.92035,-568.778
526.29602,-536.262
526.67169,-688.044
527.0473,-661.962
527.42297,-669.003
527.79865,-734.292
528.17432,-681.238
528.54993,-610.579
528.9256,-556.072
529.30127,-572.541
529.67694,-671.295
530.05255,-571.505
530.42822,-496.319
530.80389,-602.296
531.17957,-601.969
531.55524,-607.898
531.93085,-684.672
532.30652,-721.828
532.68219,-614.22
533.05786,-682.161
533.43347,-766.851
533.80914,-516.872
534.18481,-496.745
534.56049,-604.64
534.9361,-584.757
535.31177,-506.911
535.68744,-420.816
536.06311,-548.486
536.43878,-778.251
536.81439,-563.32
537.19006,-519.535
537.56573,-712.839
537.94141,-688.991
538.31702,-591.112
538.69269,-577.042
539.06836,-659.246
539.44403,-712.282
539.81964,-599.436
540.19531,-559.535
540.57098,-644.28
540.94666,-502.166
541.32233,-336.568
541.69794,-357.079
542.07361,-524.445
542.44928,-605.34
542.82495,-496.558
543.20056,-382.802
543.57623,-471.586
543.9519,-551.545
544.32758,-572.304
544.70325,-546.179
545.07886,-468.611
545.45453,-471.57
545.8302,-410.151
546.20587,-321.905
546.58148,-583.451
546.95715,-539.771
547.33282,-316.113
547.7085,-435.727
548.08411,-424.983
548.45978,-507.28
548.83545,-623.149
549.21112,-392.773
549.58679,-362.299
549.9624,-501.834
550.33807,-553.284
550.71375,-529.664
551.08942,-381.744
551.46503,-309.968
551.8407,-432.939
552.21637,-446.591
552.59204,-412.997
552.96765,-438.057
553.34332,-498.122
553.71899,-514.685
554.09467,-404.496
554.47034,-344.61
554.84595,-559.83
555.22162,-543.776
555.59729,-370.359
555.97296,-316.411
556.34857,-257.098
556.72424,-227.363
557.09991,-234.653
557.47559,-255.418
557.85126,-301.543
558.22687,-134.173
558.60254,8.09385
558.97821,-284.024
559.35388,-321.055
559.72949,-133.067
560.10516,-115.932
560.48083,-305.379
560.85651,-250.929
561.23212,-54.8217
561.60779,-87.2426
561.98346,-254.076
562.35913,-156.725
562.7348,105.648
563.11041,109.556
563.48608,-14.1985
563.86176,34.8806
564.23743,198.399
564.61304,154.174
564.98871,197.209
565.36438,217.151
565.74005,145.584
566.11566,330.299
566.49133,467.422
566.867,476.943
567.24268,520.229
567.61835,565.467
567.99396,638.266
568.36963,738.033
568.7453,835.927
569.12097,976.6
569.49658,1115.93
569.87225,1244.6
570.24792,1450.75
570.6236,1743.98
570.99921,2093.17
571.37488,2580.78
571.75055,3446.14
572.12622,4623.74
572.50189,6197.94
572.8775,8557.95
573.25317,12243.3
573.62885,17665.7
574.00452,26623.1
574.38013,42271.4
574.7558,66374.8
575.13147,96907.5
575.50714,128638
575.88281,155432
576.25842,174789
576.63409,186857
577.00977,193607
577.38544,197923
577.76105,201180
578.13672,203383
578.51239,204362
578.88806,205367
579.26367,206522
579.63934,207344
580.01501,207731
580.39069,208528
580.76636,209526
581.14197,210259
581.51764,211095
581.89331,211899
582.26898,212060
582.64459,211583
583.02026,211679
583.39594,211937
583.77161,211879
584.14722,211709
584.52289,211986
584.89856,212556
585.27423,213103
585.6499,213667
586.02551,213890
586.40118,214413
586.77686,215411
587.15253,214943
587.52814,214800
587.90381,215541
588.27948,215604
588.65515,215370
589.03076,215295
589.40643,215433
589.7821,215505
590.15778,215337
590.53345,215093
590.90906,214947
591.28473,215282
591.6604,215224
592.03607,214853
592.41168,214764
592.78735,214158
593.16302,213667
593.5387,213253
593.91437,212409
594.28998,211931
594.66565,211513
595.04132,210442
595.41699,209082
595.7926,208158
596.16827,207216
596.54395,205955
596.91962,205329
597.29523,204079
597.6709,202398
598.04657,201199
598.42224,199422
598.79791,198081
599.17352,196885
599.54919,195410
599.92487,194625
600.30054,193928
600.67615,193213
601.05182,193353
601.42749,193798
601.80316,194371
602.17877,194625
602.55444,194402
602.93011,193215
603.30579,188789
603.68146,180365
604.05707,167805
604.43274,151282
604.80841,132107
605.18408,111574
605.55969,91941
605.93536,74871.7
606.31104,60459.1
606.68671,48584.5
607.06238,39394.2
607.43799,32479.8
607.81366,26924.7
608.18933,22693.8
608.565,19440.1
608.94061,16718.5
609.31628,14636.3
609.69196,13088.3
610.06763,11748.7
610.44324,10615.5
610.81891,9854.21
611.19458,9170.82
611.57025,8548.92
611.94592,8050.52
612.32153,7668.26
612.6972,7293.87
613.07288,7012.02
613.44855,6885.66
613.82416,6698.97
614.19983,6567.23
614.5755,6555.64
614.95117,6459.4
615.32678,6115.16
615.70245,5864.25
616.07813,6028.76
616.4538,5807.72
616.82947,5473.85
617.20508,5684.17
617.58075,5617.89
617.95642,5356.61
618.33209,5247.9
618.7077,5218.31
619.08337,5080.68
619.45905,4973.49
619.83472,4970.51
620.21033,4910.11
620.586,4781.35
620.96167,4607.84
621.33734,4476.84
621.71301,4542.01
622.08862,4475.7
622.46429,4289.41
622.83997,4294.73
623.21564,4212.84
623.59125,4124.01
623.96692,4092.64
624.34259,3892.61
624.71826,3883.09
625.09393,3893.58
625.46954,3710.65
625.84521,3614.9
626.22089,3544.31
626.59656,3330.01
626.97217,3137.67
627.34784,3311.19
627.72351,3312.77
628.09918,3117.84
628.47479,3113.99
628.85046,3091.32
629.22614,3029.23
629.60181,2995.72
629.97748,3001.66
630.35309,2899.33
630.72876,2881.57
631.10443,2992.22
631.4801,2889.16
631.85571,2695.06
632.23138,2632.66
632.60706,2709.76
632.98273,2651.22
633.35834,2513.69
633.73401,2438.46
634.10968,2449.66
634.48535,2403.75
634.86102,2364.83
635.23663,2403.99
635.6123,2453.83
635.98798,2360.09
636.36365,2257.96
636.73926,2196.91
637.11493,2046.39
637.4906,2207.04
637.86627,2374.34
638.24188,2200
638.61755,2129.74
638.99323,2117.34
639.3689,1984.82
639.74457,1818.31
640.12018,2036.82
640.49585,2098.98
640.87152,1896.39
641.24719,1931.4
641.6228,1936.75
641.99847,1931.43
642.37415,1964.64
642.74982,1895.65
643.12549,1832.55
643.5011,1739.05
643.87677,1641.03
644.25244,1783.63
644.62811,1871.65
645.00372,1891.83
645.37939,1985.03
645.75507,1878.65
646.13074,1731.63
646.50635,1674.66
646.88202,1643.99
647.25769,1668.11
647.63336,1647.17
648.00903,1606.22
648.38464,1730.54
648.76031,1844.1
649.13599,1791.02
649.51166,1637.45
649.88727,1616.8
650.26294,1578.17
650.63861,1562.85
651.01428,1652.59
651.38989,1562.8
651.76556,1540.25
652.14124,1742.2
652.51691,1918.17
652.89258,1692.22
653.26819,1492.04
653.64386,1590.82
654.01953,1621.55
654.3952,1545.81
654.77081,1498.59
655.14648,1482.53
655.52216,1330.3
655.89783,1455.27
656.2735,1583.76
656.64911,1383.69
657.02478,1593.62
657.40045,1540.93
657.77612,1247.53
658.15173,1465.8
658.5274,1536.07
658.90308,1571.88
659.27875,1694.39
659.65436,1538.18
660.03003,1241.33
660.4057,1154.32
660.78137,1318.26
661.15704,1321.36
661.53265,1333.34
661.90833,1303.27
662.284,1119.91
662.65967,1116.22
663.03528,1170.28
663.41095,1087.53
663.78662,936.579
664.16229,1076.02
664.5379,1212.69
664.91357,1193.01
665.28925,1246.16
665.66492,970.143
666.04059,863.143
666.4162,1189.44
666.79187,1107.18
667.16754,943.775
667.54321,865.221
667.91882,813.47
668.29449,997.193
668.67017,1066.53
669.04584,981.982
669.42145,1012.13
669.79712,940.333
670.17279,911.632
670.54846,960.734
670.92413,861.381
671.29974,806.638
671.67542,773.696
672.05109,698.365
672.42676,702.3
672.80237,734.268
673.17804,718.157
673.55371,690.893
673.92938,798.872
674.30505,804.182
674.68066,698.207
675.05634,665.091
675.43201,539.322
675.80768,644.963
676.18329,861.815
676.55896,609.762
676.93463,502.143
677.3103,599.985
677.68591,623.037
678.06158,546.263
678.43726,505.681
678.81293,506.844
679.1886,479.758
679.56421,436.181
679.93988,305.036
680.31555,265.626
680.69122,485.224
681.06683,513.828
681.4425,436.238
681.81818,420.314
682.19385,394.51
682.56946,334.956
682.94513,440.746
683.3208,629.999
683.69647,454.913
684.07214,422.207
684.44775,500.414
684.82343,371.849
685.1991,283.62
685.57477,356.285
685.95038,468.574
686.32605,450.158
686.70172,396.936
687.07739,358.583
687.453,339.13
687.82867,316.455
688.20435,226.501
688.58002,186.179
688.95569,238.663
689.3313,225.637
689.70697,257.432
690.08264,333.777
690.45831,360.729
690.83392,334.956
691.20959,314.433
691.58527,310.324
691.96094,229.776
692.33661,-32.0878
692.71222,75.1373
693.08789,425.348
693.46356,213.915
693.83923,-25.4402
694.21484,163.325
694.59052,469.097
694.96619,150.426
695.34186,-10.1892
695.71747,127.485
696.09314,173.204
696.46881,149.507
696.84448,98.273
697.22015,6.84169
697.59576,-62.6004
697.97144,136.87
698.34711,258.571
698.72278,113.011
699.09839,-21.0936
699.47406,41.795
699.84973,148.066
700.2254,138.081
700.60101,80.5052
700.97668,-11.4378
701.35236,-58.9762
701.72803,16.0259
702.1037,161.733
702.47931,223.202
702.85498,176.808
703.23065,133.409
703.60632,165.843
703.98193,223.315
704.3576,242.62
704.73328,206.886
705.10895,122.628
705.48462,107.731
705.86023,109.543
706.2359,-58.5616
706.61157,84.997
706.98724,227.727
707.36285,33.8399
707.73853,119.757
708.1142,112.977
708.48987,-3.05304
708.86548,109.733
709.24115,211.738
709.61682,297.396
709.99249,290.856
710.36816,92.6053
710.74377,126.271
711.11945,215.765
711.49512,240.5
711.87079,444.197
712.2464,251.881
712.62207,55.306
712.99774,218.883
713.37341,-40.3676
713.74902,-7.73496
714.12469,306.741
714.50037,238.222
714.87604,47.1547
715.25171,-71.839
715.62732,-20.0315
716.00299,149.155
716.37866,64.7908
716.75433,35.603
717.12994,185.448
717.50562,80.0593
717.88129,98.0316
718.25696,164.734
718.63257,49.6204
719.00824,-14.6539
719.38391,31.7515
719.75958,145.849
720.13525,214.746
720.51086,105.18
720.88654,126.736
721.26221,193.204
721.63788,-37.0904
722.01349,15.9686
722.38916,124.664
722.76483,-6.56098
723.1405,-120.727
723.51617,-126.667
723.89178,-54.1201
724.26746,-20.4127
724.64313,-122.969
725.0188,-69.0553
725.39441,-26.7202
725.77008,-226.192
726.14575,-126.848
726.52142,-56.631
726.89703,-197.55
727.27271,-275.489
727.64838,-299.363
728.02405,-175.469
728.39972,-21.6892
728.77533,-135.406
729.151,-118.976
729.52667,-56.0942
729.90234,-146.216
730.27795,-151.086
730.65363,-158.747
731.0293,-182.696
731.40497,-127.998
731.78058,-27.2385
732.15625,-98.4887
732.53192,-249.093
732.90759,-197.639
733.28326,-170.514
733.65887,-106.379
734.03455,-7.53036
734.41022,-75.3161
734.78589,-81.0297
735.1615,-120.824
735.53717,-221.794
735.91284,-47.0203
736.28851,-111.221
736.66412,-269.791
737.03979,-109.94
737.41547,-121.76
737.79114,-265.719
738.16681,-337.064
738.54242,-263.609
738.91809,-119.872
739.29376,-161.505
739.66943,-316.238
740.04504,-202.96
740.42072,-131.11
740.79639,-146.931
741.17206,-127.29
741.54773,-115.529
741.92334,-196.455
742.29901,-261.1
742.67468,-214.398
743.05035,-253.115
743.42596,-222.865
743.80164,-173.33
744.17731,-289.735
744.55298,-259.192
744.92859,-226.903
745.30426,-245.159
745.67993,-110.945
746.0556,-201.147
746.43127,-252.255
746.80688,-78.2148
747.18256,-176.579
747.55823,-238.566
747.9339,-137.129
748.30951,-55.9224
748.68518,-98.552
749.06085,-182.184
749.43652,-205.601
749.81213,-164.61
750.18781,-165.11
750.56348,-162.423
750.93915,-119.63
751.31482,-102.965
751.69043,-153.646
752.0661,-210.515
752.44177,-188.264
752.81744,-93.1756
753.19305,-89.9399
753.56873,-206.4
753.9444,-293.202
754.32007,-194.703
754.69574,-153.578
755.07135,-236.474
755.44702,-242.799
755.82269,-120.509
756.19836,-162.66
756.57397,-357.793
756.94965,-304.89
757.32532,-122.152
757.70099,-96.4256
758.0766,-260.167
758.45227,-293.295
758.82794,-229.923
759.20361,-259.389
759.57928,-356.305
759.9549,-168.768
760.33057,-169.212
760.70624,-366.733
761.08191,-302.098
761.45752,-152.092
761.83319,-195.601
762.20886,-334.964
762.58453,-253.093
762.96014,-287.937
763.33582,-276.277
763.71149,-146.866
764.08716,-325.63
764.46283,-490.266
764.83844,-389.73
765.21411,-177.021
765.58978,-230.844
765.96545,-184.676
766.34106,-102.73
766.71674,-316.798
767.09241,-344.883
767.46808,-224.826
767.84369,-103.537
768.21936,3.97443
768.59503,-99.0236
768.9707,-239.391
769.34637,-270.78
769.72198,-334.15
770.09766,-255.51
770.47333,-170.884
770.849,-234.661
771.22461,-195.704
771.60028,-207.243
771.97595,-303.637
772.35162,-332.197
772.72729,-284.486
773.10291,-248.919
773.47858,-250.575
773.85425,-253.451
774.22992,-334.543
774.60553,-329.321
774.9812,-247.188
775.35687,-349.5
775.73254,-189.035
776.10815,-64.6995
776.48383,-302.987
776.8595,-281.881
777.23517,-173.606
777.61084,-193.338
777.98645,-279.128
778.36212,-276.682
778.73779,-275.364
779.11346,-326.585
779.48907,-353.938
779.86475,-372.961
780.24042,-365.219
780.61609,-308.878
780.9917,-232.913
781.36737,-226.249
781.74304,-352.572
782.11871,-530.437
782.49438,-525.519
782.87,-366.52
783.24567,-259.768
783.62134,-340.443
783.99701,-424.513
784.37262,-369.389
784.74829,-217.302
785.12396,-155.806
785.49963,-284.959
785.87524,-364.153
786.25092,-246.298
786.62659,-129.502
787.00226,-155.826
787.37793,-245.641
787.75354,-300.634
788.12921,-377.099
788.50488,-349.055
788.88055,-308.489
789.25616,-345.622
789.63184,-154.588
790.00751,-49.7211
790.38318,-145.051
790.75885,-225.176
791.13446,-412.23
791.51013,-384.608
791.8858,-116.866
792.26147,-121.352
792.63708,-352.296
793.01276,-325.91
793.38843,-62.2188
793.7641,-325.008
794.13971,-381.606
794.51538,-245.369
794.89105,-348.59
795.26672,-239.647
795.6424,-191.509
796.01801,-300.186
796.39368,-257.634
796.76935,-176.019
797.14502,-219.855
797.52063,-305.474
797.8963,-352.807
798.27197,-281.631
798.64764,-243.966
799.02325,-288.329
799.39893,-245.307
799.7746,-221.229
800.15027,-266.462
800.52594,-350.596
800.90155,-344.751
801.27722,-177.348
801.65289,-107.056
802.02856,-254.933
802.40417,-361.405
802.77985,-289.327
803.15552,-122.773
803.53119,-224.994
803.90686,-313.254
804.28247,-268.188
804.65814,-259.628
805.03381,-323.55
805.40948,-356.254
805.7851,-302.44
806.16077,-271.072
806.53644,-343.513
806.91211,-296.932
807.28772,-242.32
807.66339,-409.595
808.03906,-506.685
808.41473,-456.982
808.79041,-439.061
809.16602,-323.984
809.54169,-222.803
809.91736,-272.71
810.29303,-312.802
810.66864,-347.624
811.04431,-204.792
811.41998,-76.9577
811.79565,-252.995
812.17126,-346.125
812.54694,-280.851
812.92261,-305.407
813.29828,-243.596
813.67395,-195.312
814.04956,-240.028
814.42523,-226.476
814.8009,-183.99
815.17657,-98.5622
815.55219,-173.544
815.92786,-281.909
816.30353,-256.778
816.6792,-277.081
817.05481,-321.53
817.43048,-369.542
817.80615,-243.144
818.18182,-205.171
818.5575,-358.279
818.93311,-249.014
819.30878,-193.61
819.68445,-304.095
820.06012,-376.379
820.43573,-345.811
820.8114,-272.565
821.18707,-283.786
821.56274,-333.99
821.93842,-407.301
822.31403,-423.451
822.6897,-286.453
823.06537,-269.257
823.44104,-382.452
823.81665,-425.085
824.19232,-372.251
824.56799,-273.291
824.94366,-317.104
825.31927,-333.684
825.69495,-127.326
826.07062,-55.6995
826.44629,-125.802
826.82196,-126.425
827.19757,-43.8855
827.57324,-73.7048
827.94891,-87.6606
828.32458,-84.8353
828.7002,-155.583
829.07587,-15.9772
829.45154,51.1416
829.82721,-36.5423
830.20282,85.2326
830.57849,-10.9994
830.95416,-169.754
831.32983,-53.3415
831.70551,-99.2835
832.08112,-136.371
832.45679,-51.6423
832.83246,-75.0884
833.20813,-33.2382
833.58374,-27.0971
833.95941,-113.962
834.33508,-124.942
834.71075,-109.429
835.08636,-187.367
835.46204,-307.385
835.83771,-298.931
836.21338,-381.727
836.58905,-341.478
836.96466,-117.704
837.34033,-234.68
837.716,-379.075
838.09167,-323.416
838.46729,-189.27
838.84296,-163.494
839.21863,-230.54
839.5943,-272.073
839.96997,-197.814
840.34558,-91.8424
840.72125,-76.8218
841.09692,-165.359
841.4726,-230.906
841.84821,-225.492
842.22388,-243.274
842.59955,-293.002
842.97522,-243.488
843.35083,-230.503
843.7265,-294.015
844.10217,-375.535
844.47784,-421.22
844.85352,-329.167
845.22913,-217.301
845.6048,-245.007
845.98047,-287.122
846.35614,-320.864
846.73175,-213.793
847.10742,41.1717
847.48309,-126.486
847.85876,-286.726
848.23438,-126.599
848.61005,-9.01816
848.98572,-57.9529
849.36139,87.9194
849.73706,414.447
850.11267,327.111
850.48834,360.231
850.86401,517.218
851.23969,628.796
851.6153,1079.3
851.99097,1618.57
852.36664,2271.07
852.74231,3369.3
853.11798,4986.35
853.49359,6908.71
853.86926,8260.16
854.24493,8051.22
854.62061,6563.32
854.99622,4706.14
855.37189,3178.13
855.74756,2102.41
856.12323,1344.27
856.49884,721.083
856.87451,285.786
857.25018,259.49
857.62585,176.179
858.00153,77.9327
858.37714,144.62
858.75281,32.1374
859.12848,-67.1993
859.50415,-63.7754
859.87976,-79.6918
860.25543,-135.043
860.6311,-195.085
861.00677,-173.573
861.38239,-35.852
861.75806,27.0127
862.13373,-74.549
862.5094,-126.271
862.88507,131.335
863.26068,180.29
863.63635,49.8443
864.01202,-10.9948
864.3877,-68.8016
864.76331,-135.556
865.13898,35.0023
865.51465,395.962
865.89032,284.821
866.26593,293.964
866.6416,488.553
867.01727,501.686
867.39294,831.227
867.76862,1246.88
868.14423,1544.69
868.5199,1870.42
868.89557,2211.69
869.27124,2639.59
869.64685,3184.47
870.02252,3774.46
870.39819,4446.76
870.77386,5442.99
871.14954,6955.51
871.52515,9000.74
871.90082,11903.2
872.27649,15686.1
872.65216,20283.1
873.02777,25799.1
873.40344,31120.1
873.77911,34772
874.15479,35778
874.5304,34194.9
874.90607,30387.2
875.28174,25431.3
875.65741,20738.9
876.03308,16617.5
876.40869,13158
876.78436,10457.2
877.16003,8608.19
877.53571,7585.13
877.91132,6860.75
878.28699,5998.05
878.66266,5194.25
879.03833,4612.37
879.41394,4347.97
879.78961,4202.37
880.16528,3660.27
880.54095,3315.82
880.91663,3297.73
881.29224,3156.68
881.66791,3059.06
882.04358,3194.78
882.41925,3455.29
882.79486,3612.78
883.17053,3942.71
883.5462,4336.22
883.92188,4615.27
884.29749,4927.7
884.67316,5625.13
885.04883,6919.35
885.4245,8674.7
885.80017,10425
886.17578,11924.8
886.55145,13020.5
886.92712,13707.3
887.3028,14256
887.67841,14885.6
888.05408,15398.8
888.42975,15466.2
888.80542,15365.7
889.18109,15380.1
889.5567,15500.5
889.93237,15568
890.30804,15813.5
890.68372,15987.2
891.05933,16100.8
891.435,16686.2
891.81067,17221.5
892.18634,18489.9
892.56195,20936.6
892.93762,23033.9
893.31329,25490.4
893.68896,28303
894.06464,30891.6
894.44025,33984.1
894.81592,37962.1
895.19159,42420.4
895.56726,46583.8
895.94287,50244.6
896.31854,53354.2
896.69421,56524.9
897.06989,60881
897.4455,66679.7
897.82117,73687.9
898.19684,80897.6
898.57251,86535.6
898.94818,89289.6
899.32379,88525.6
899.69946,84358.5
900.07513,77632.7
900.45081,69570.6
900.82642,61031
901.20209,52585.1
901.57776,44912.3
901.95343,37829.9
902.3291,31464.2
902.70471,26458.9
903.08038,22991.1
903.45605,21028.8
903.83173,19805.6
904.20734,18147.3
904.58301,16320.9
904.95868,14900.1
905.33435,13915
905.70996,12788.8
906.08563,11772.3
906.4613,10993.2
906.83698,10334.3
907.21265,9744.37
907.58826,9363.12
907.96393,9556.08
908.3396,10603.7
908.71527,12182.3
909.09088,13404
909.46655,13819.2
909.84222,13643.3
910.2179,13067.2
910.59351,12290.4
910.96918,11445.9
911.34485,10609.3
911.72052,9957.39
912.09619,9343.35
912.4718,8615.82
912.84747,7944.52
913.22314,7472.62
913.59882,7221.85
913.97443,7153.79
914.3501,7260.95
914.72577,7503.98
915.10144,7762.13
915.47705,7960.67
915.85272,8228.36
916.22839,8391.02
916.60406,8581.49
916.97974,9136.9
917.35535,9617.03
917.73102,9871.58
918.10669,10055
918.48236,10439.9
918.85797,11342.3
919.23364,12967.4
919.60931,15452.6
919.98499,18831.1
920.36066,22606.4
920.73627,26210.9
921.11194,29183.6
921.48761,31195.3
921.86328,32203.4
922.23889,32590.8
922.61456,32923.3
922.99023,33413.7
923.36591,33849.8
923.74152,33997.6
924.11719,33800.3
924.49286,33261.3
924.86853,32448.5
925.2442,31939.7
925.61981,32784.1
925.99548,35299.4
926.37115,38863.8
926.74683,42205.9
927.12244,44302.7
927.49811,46325.6
927.87378,48048.7
928.24945,48700.8
928.62506,49368.3
929.00073,49707.8
929.3764,49517.6
929.75208,48964.3
930.12775,47456.8
930.50336,45024.1
930.87903,41918.8
931.2547,38275.2
931.63037,34347.8
932.00598,31339.4
932.38165,30086.4
932.75732,29977.6
933.133,29590.8
933.50867,28510
933.88428,27066.7
934.25995,25451.8
934.63562,23546
935.01129,21785.6
935.3869,20516.4
935.76257,18980.7
936.13824,17277.9
936.51392,15720.2
936.88953,14320.4
937.2652,12827.5
937.64087,11658.1
938.01654,11015.3
938.39221,10638.2
938.76782,10725.4
939.14349,10853.7
939.51917,10709.1
939.89484,10618
940.27045,10557.9
940.64612,10449.6
941.02179,10239.2
941.39746,9926.62
941.77307,9782.2
942.14874,9748.67
942.52441,9548.55
942.90009,9153.15
943.27576,8550.99
943.65137,7906.34
944.02704,7492.25
944.40271,7391.03
944.77838,7621.95
945.15399,7995.43
945.52966,8228.15
945.90533,8462.25
946.28101,8704.4
946.65662,8826.97
947.03229,8774.32
947.40796,8789.76
947.78363,8939.13
948.1593,9054.19
948.53491,8962.73
948.91058,8940.96
949.28625,8775
949.66193,8177.63
950.03754,7748.56
950.41321,7500.43
950.78888,7413.98
951.16455,7664.5
951.54022,8251.36
951.91583,8923.49
952.2915,9572.37
952.66718,10245.6
953.04285,10577.8
953.41846,10822.7
953.79413,11218.9
954.1698,11501.9
954.54547,11911.6
954.92108,12286.5
955.29675,12437.2
955.67242,12669
956.0481,12573.6
956.42377,12091.9
956.79938,11680.7
957.17505,11710.9
957.55072,11990.6
957.92639,12507.3
958.302,13481.2
958.67767,14633.7
959.05334,15534.3
959.42902,16195.7
959.80463,17011.3
960.1803,17702
960.55597,18161.6
960.93164,18487.4
961.30731,18806.9
961.68292,19259.6
962.05859,19402
962.43427,18794.1
962.80994,17815.7
963.18555,17055.4
963.56122,16813.2
963.93689,17135
964.31256,18072.6
964.68817,19273.2
965.06384,20535
965.43951,21787
965.81519,22490.9
966.19086,22757.5
966.56647,22848.3
966.94214,22752
967.31781,22474.3
967.69348,22283.6
968.06909,22083.6
968.44476,21312
968.82043,20683.5
969.19611,19824.6
969.57178,18273.6
969.94739,17102.6
970.32306,16083.9
970.69873,15699.9
971.0744,16263
971.45001,16862.8
971.82568,26495.5
972.20135,49721.2
972.57703,81824.8
972.95264,118849
973.32831,165908
973.70398,217447
974.07965,256413
974.45532,291368
974.83093,320344
975.2066,343550
975.58228,368460
975.95795,356860
976.33356,313770
976.70923,267050
977.0849,212565
977.46057,160213
977.83618,117699
978.21185,85097.6
978.58752,61694.9
978.9632,45420.6
979.33887,34131.7
979.71448,26437.6
980.09015,21598.4
980.46582,18368
980.84149,15910.7
981.2171,14285.1
981.59277,13373.7
981.96844,12931.4
982.34412,12791.3
982.71979,12990.8
983.0954,13606.2
983.47107,14686.8
983.84674,15814.4
984.22241,15972.2
984.59802,15387.6
984.97369,14415.9
985.34937,13219
985.72504,12122
986.10065,11064.5
986.47632,10016.4
986.85199,9217.96
987.22766,8954.32
987.60333,8746.26
987.97894,8366.83
988.35461,8207.64
988.73029,7922.92
989.10596,7549.66
989.48157,7292.87
989.85724,7075.14
990.23291,6820.79
990.60858,6495.37
990.98419,6187.91
991.35986,6080.26
991.73553,5873.88
992.11121,5538.12
992.48688,5379.39
992.86249,5512.99
993.23816,5687.33
993.61383,6065.38
993.9895,6990.15
994.36511,7739.23
994.74078,8706.51
995.11646,10171.4
995.49213,11576.6
995.86774,13037.7
996.24341,14627
996.61908,16094.3
996.99475,17035.4
997.37042,17642.3
997.74603,17670.3
998.1217,16955.2
998.49738,16185.3
998.87305,15164.8
999.24866,13943.8
999.62433,12864.1
1000,11804.2
