Date and Time:                Tue Jan 18 15:44:50.000 2022
Software Version:             4.31.30023.0
Temperature (C):              -50
Model:                        DU420_BVF
Data Type:                    Counts (Bg Corrected)
Acquisition Mode:             Accumulate
Trigger Mode:                 Internal
Exposure Time (secs):         0.09999
Accumulate Cycle Time (secs): 0.09999
Frequency (Hz):               10.001
Number of Accumulations:      1000
Readout Mode:                 Full Vertical Binning
Horizontal binning:           1
Extended Dynamic Range:       off
Horizontally flipped:         false
Vertical Shift Speed (usecs): 8.25
Pixel Readout Time (usecs):   30.303
Serial Number:                22942
Pre-Amplifier Gain:           1.000000
Spurious Noise Filter Mode:   No Filter
Photon counted:               false
Data Averaging Filter Mode:   No Filter
KY328i:
Serial Number:                
Wavelength (nm):              749.812
Grating Groove Density (l/mm):150.012
Grating Blaze:                500nm
Output Flipper Port:          Direct
Filter:                       5-664 LP



500,-431.644
500.37564,-671.275
500.75131,-678.001
501.12695,-597.256
501.50262,-640.661
501.87827,-428.289
502.25394,-475.082
502.62958,-632.75
503.00525,-519.552
503.38089,-682.275
503.75656,-722.432
504.13223,-538.29
504.50787,-569.71
504.88354,-677.182
505.25919,-705.637
505.63486,-648.225
506.0105,-607.12
506.38617,-580.17
506.76181,-570.131
507.13748,-564.879
507.51312,-513.807
507.88879,-504.004
508.26443,-529.252
508.64011,-509.051
509.01578,-489.684
509.39142,-545.966
509.76709,-577.958
510.14273,-449.491
510.5184,-514.769
510.89404,-538.109
511.26971,-378.466
511.64536,-479.583
512.021,-515.139
512.39667,-418.023
512.77234,-429.793
513.14801,-591.92
513.52368,-605.887
513.89929,-488.595
514.27496,-534.81
514.65063,-617.447
515.02631,-560.776
515.40192,-473.642
515.77759,-605.337
516.15326,-503.3
516.52893,-411.005
516.90454,-631.906
517.28021,-701.282
517.65588,-716.827
518.03156,-729.045
518.40723,-654.697
518.78284,-596.346
519.15851,-491.665
519.53418,-404.321
519.90985,-508.035
520.28546,-606.166
520.66113,-580.074
521.0368,-482.249
521.41248,-442.519
521.78809,-442.013
522.16376,-431.875
522.53943,-432.635
522.9151,-529.5
523.29077,-551.776
523.66638,-499.616
524.04205,-515.535
524.41772,-457.246
524.7934,-341.055
525.16901,-321.961
525.54468,-460.724
525.92035,-404.043
526.29602,-282.409
526.67169,-342.062
527.0473,-412.506
527.42297,-414.342
527.79865,-485.239
528.17432,-672.717
528.54993,-600.513
528.9256,-365.831
529.30127,-312.636
529.67694,-529.158
530.05255,-447.649
530.42822,-328.537
530.80389,-465.474
531.17957,-514.513
531.55524,-507.795
531.93085,-586.672
532.30652,-675.104
532.68219,-474.547
533.05786,-444.433
533.43347,-546.28
533.80914,-367.173
534.18481,-365.433
534.56049,-498.376
534.9361,-514.171
535.31177,-400.836
535.68744,-383.096
536.06311,-527.363
536.43878,-617.737
536.81439,-394.236
537.19006,-338.537
537.56573,-508.148
537.94141,-517.232
538.31702,-316.968
538.69269,-302.057
539.06836,-451.213
539.44403,-363.247
539.81964,-300.852
540.19531,-327.413
540.57098,-338.589
540.94666,-306.753
541.32233,-307.96
541.69794,-360.898
542.07361,-407.995
542.44928,-390.693
542.82495,-347.427
543.20056,-318.876
543.57623,-305.231
543.9519,-292.756
544.32758,-266.694
544.70325,-303.754
545.07886,-446.787
545.45453,-351.983
545.8302,-202.208
546.20587,-269.708
546.58148,-349.991
546.95715,-338.006
547.33282,-276.024
547.7085,-245.353
548.08411,-239.155
548.45978,-266.99
548.83545,-289.713
549.21112,-268.219
549.58679,-305.266
549.9624,-255.037
550.33807,-182.076
550.71375,-406.178
551.08942,-413.793
551.46503,-242.052
551.8407,-239.39
552.21637,-277.01
552.59204,-273.453
552.96765,-269.316
553.34332,-323.539
553.71899,-360.121
554.09467,-364.896
554.47034,-363.211
554.84595,-370.224
555.22162,-371.706
555.59729,-283.683
555.97296,-134.286
556.34857,-119.57
556.72424,-156.045
557.09991,-177.46
557.47559,-166.013
557.85126,-39.5176
558.22687,156.906
558.60254,134.263
558.97821,-234.525
559.35388,-239.241
559.72949,6.16342
560.10516,62.9554
560.48083,-85.4954
560.85651,-83.5756
561.23212,29.1145
561.60779,44.9732
561.98346,57.2388
562.35913,39.3407
562.7348,28.7385
563.11041,93.241
563.48608,136.351
563.86176,167.3
564.23743,238.997
564.61304,339.434
564.98871,336.124
565.36438,198.728
565.74005,131.455
566.11566,393.206
566.49133,530.153
566.867,543.422
567.24268,685.523
567.61835,684.967
567.99396,570.586
568.36963,558.851
568.7453,747.341
569.12097,852.396
569.49658,1027.36
569.87225,1313.9
570.24792,1424.76
570.6236,1672.59
570.99921,2100.2
571.37488,2665.4
571.75055,3611.48
572.12622,4862.47
572.50189,6586.65
572.8775,9216.94
573.25317,13103.1
573.62885,18928.7
574.00452,28720.2
574.38013,45921
574.7558,73606.6
575.13147,110176
575.50714,149568
575.88281,183910
576.25842,209153
576.63409,225068
577.00977,234206
577.38544,240083
577.76105,243793
578.13672,246082
578.51239,247866
578.88806,249047
579.26367,250227
579.63934,251474
580.01501,252080
580.39069,252902
580.76636,253852
581.14197,254344
581.51764,254526
581.89331,254982
582.26898,255666
582.64459,256047
583.02026,255723
583.39594,255571
583.77161,255827
584.14722,255854
584.52289,255651
584.89856,255615
585.27423,256174
585.6499,257191
586.02551,257377
586.40118,257682
586.77686,258888
587.15253,258544
587.52814,258666
587.90381,259686
588.27948,259865
588.65515,259481
589.03076,259255
589.40643,259271
589.7821,258996
590.15778,259287
590.53345,259188
590.90906,258424
591.28473,259082
591.6604,259247
592.03607,258439
592.41168,258024
592.78735,257667
593.16302,257291
593.5387,256638
593.91437,255568
594.28998,254870
594.66565,254170
595.04132,252951
595.41699,251594
595.7926,250387
596.16827,249526
596.54395,248269
596.91962,246499
597.29523,245027
597.6709,243317
598.04657,241401
598.42224,239348
598.79791,237831
599.17352,236552
599.54919,234472
599.92487,232825
600.30054,231768
600.67615,231043
601.05182,230652
601.42749,231026
601.80316,232108
602.17877,232482
602.55444,232070
602.93011,230190
603.30579,225009
603.68146,215595
604.05707,200573
604.43274,180816
604.80841,157853
605.18408,132878
605.55969,108899
605.93536,87374.9
606.31104,68925.3
606.68671,54013.8
607.06238,42352.6
607.43799,33498.7
607.81366,26570.6
608.18933,21278.3
608.565,17203.5
608.94061,13917.2
609.31628,11399.4
609.69196,9345.41
610.06763,7509.93
610.44324,6175.7
610.81891,5219.65
611.19458,4438.44
611.57025,3802.94
611.94592,3266.51
612.32153,2850.5
612.6972,2521.03
613.07288,2250.43
613.44855,2053.04
613.82416,1933.26
614.19983,1886.56
614.5755,1888.34
614.95117,1803.25
615.32678,1643.32
615.70245,1554.13
616.07813,1602.01
616.4538,1560.11
616.82947,1493.12
617.20508,1592.04
617.58075,1546.55
617.95642,1363.34
618.33209,1248.79
618.7077,1301.44
619.08337,1244.93
619.45905,1200.02
619.83472,1273.76
620.21033,1213.93
620.586,1201.13
620.96167,1172.38
621.33734,1033.3
621.71301,1152.03
622.08862,1193.62
622.46429,991.146
622.83997,959.568
623.21564,1137.17
623.59125,1206.17
623.96692,1069.71
624.34259,870.233
624.71826,904.906
625.09393,1037.45
625.46954,1032.6
625.84521,904.146
626.22089,792.079
626.59656,724.435
626.97217,707.247
627.34784,849.876
627.72351,891.249
628.09918,768.42
628.47479,709.611
628.85046,777.157
629.22614,757.215
629.60181,703.04
629.97748,875.576
630.35309,905.528
630.72876,875.795
631.10443,890.963
631.4801,723.406
631.85571,669.428
632.23138,758.166
632.60706,781.956
632.98273,682.209
633.35834,583.454
633.73401,565.464
634.10968,563.683
634.48535,437.61
634.86102,419.399
635.23663,614.307
635.6123,750.732
635.98798,465.368
636.36365,297.133
636.73926,490.645
637.11493,496.524
637.4906,712.591
637.86627,822.4
638.24188,527.394
638.61755,498.952
638.99323,572.785
639.3689,557.741
639.74457,547.62
640.12018,679.107
640.49585,592.259
640.87152,417.939
641.24719,597.602
641.6228,481.053
641.99847,385.228
642.37415,567.689
642.74982,562.337
643.12549,515.347
643.5011,438.348
643.87677,329.181
644.25244,408.604
644.62811,515.995
645.00372,571.507
645.37939,594.685
645.75507,492.282
646.13074,430.829
646.50635,515.327
646.88202,589.324
647.25769,355.469
647.63336,243.067
648.00903,435.211
648.38464,478.45
648.76031,563.54
649.13599,543.259
649.51166,362.423
649.88727,472.286
650.26294,498.28
650.63861,400.249
651.01428,436.317
651.38989,470.145
651.76556,424.876
652.14124,422.54
652.51691,547.878
652.89258,439.15
653.26819,399.228
653.64386,576.391
654.01953,576.01
654.3952,483.583
654.77081,439.464
655.14648,394.686
655.52216,191.547
655.89783,248.737
656.2735,437.408
656.64911,391.946
657.02478,393.91
657.40045,374.001
657.77612,289.414
658.15173,288.142
658.5274,461.953
658.90308,556.61
659.27875,494.778
659.65436,498.231
660.03003,362.495
660.4057,242.663
660.78137,320.462
661.15704,388.929
661.53265,373.437
661.90833,330.982
662.284,315.385
662.65967,256.24
663.03528,167.207
663.41095,138.276
663.78662,238.176
664.16229,369.94
664.5379,354.406
664.91357,260.734
665.28925,317.788
665.66492,197.928
666.04059,189.439
666.4162,421.337
666.79187,301.263
667.16754,274.038
667.54321,294.551
667.91882,123.348
668.29449,238.438
668.67017,315.35
669.04584,212.188
669.42145,175.225
669.79712,171.405
670.17279,229.513
670.54846,275.77
670.92413,182.714
671.29974,232.683
671.67542,278.312
672.05109,133.258
672.42676,11.6117
672.80237,14.3138
673.17804,98.323
673.55371,155.825
673.92938,133.253
674.30505,134.043
674.68066,159.784
675.05634,133.297
675.43201,150.91
675.80768,260.848
676.18329,281.866
676.55896,50.0135
676.93463,131.707
677.3103,240.181
677.68591,62.5868
678.06158,35.4965
678.43726,77.9708
678.81293,92.5502
679.1886,83.8418
679.56421,60.4861
679.93988,112.383
680.31555,103.739
680.69122,-52.9799
681.06683,137.657
681.4425,228.795
681.81818,96.4284
682.19385,233.668
682.56946,148.312
682.94513,78.151
683.3208,239.692
683.69647,164.422
684.07214,91.3328
684.44775,108.279
684.82343,70.9419
685.1991,-47.2142
685.57477,13.213
685.95038,184.959
686.32605,138.472
686.70172,-85.7179
687.07739,-65.6761
687.453,147.792
687.82867,50.6863
688.20435,-40.2763
688.58002,-44.9002
688.95569,-44.1741
689.3313,-5.29141
689.70697,111.157
690.08264,234.166
690.45831,204.691
690.83392,-40.4473
691.20959,0.708427
691.58527,198.793
691.96094,44.629
692.33661,-99.2785
692.71222,-25.7746
693.08789,142.933
693.46356,135.43
693.83923,-38.5968
694.21484,-74.6094
694.59052,91.1322
694.96619,94.5537
695.34186,41.7432
695.71747,87.597
696.09314,208.927
696.46881,201.883
696.84448,61.2574
697.22015,-101.873
697.59576,-137.052
697.97144,42.6492
698.34711,65.8678
698.72278,-106.948
699.09839,-82.6301
699.47406,21.7826
699.84973,32.3627
700.2254,-8.07217
700.60101,81.3295
700.97668,-8.56434
701.35236,-133.094
701.72803,-1.61083
702.1037,202.144
702.47931,323.432
702.85498,245.418
703.23065,25.8122
703.60632,38.9811
703.98193,217.937
704.3576,230.749
704.73328,-9.65956
705.10895,190.365
705.48462,333.639
705.86023,37.977
706.2359,-34.6963
706.61157,154.919
706.98724,219.473
707.36285,15.2537
707.73853,29.4773
708.1142,184.505
708.48987,238.401
708.86548,147.756
709.24115,185.02
709.61682,299.423
709.99249,291.37
710.36816,142.234
710.74377,250.541
711.11945,230.5
711.49512,-0.191259
711.87079,199.526
712.2464,223.49
712.62207,106.309
712.99774,156.237
713.37341,99.1509
713.74902,112.419
714.12469,250.668
714.50037,316.583
714.87604,157.016
715.25171,-37.2261
715.62732,-10.6834
716.00299,237.229
716.37866,268.721
716.75433,151.986
717.12994,119.33
717.50562,176.729
717.88129,238.172
718.25696,260.137
718.63257,237.623
719.00824,188.436
719.38391,247.597
719.75958,285.022
720.13525,160.598
720.51086,197.726
720.88654,242.753
721.26221,179.371
721.63788,137.354
722.01349,155.556
722.38916,211.574
722.76483,190.109
723.1405,19.3705
723.51617,79.2042
723.89178,119.487
724.26746,-94.3546
724.64313,-74.2461
725.0188,43.5389
725.39441,45.5897
725.77008,-12.5996
726.14575,135.585
726.52142,41.2004
726.89703,-218.169
727.27271,-90.7963
727.64838,-52.6638
728.02405,-130.277
728.39972,-146.437
728.77533,-78.3974
729.151,103.699
729.52667,153.498
729.90234,-59.6474
730.27795,-209.413
730.65363,-169.857
731.0293,-87.4826
731.40497,-71.1489
731.78058,93.1273
732.15625,22.2585
732.53192,-178.136
732.90759,-23.2833
733.28326,-2.73718
733.65887,-30.1429
734.03455,44.6406
734.41022,44.3515
734.78589,57.8242
735.1615,9.62569
735.53717,-94.9137
735.91284,-1.84607
736.28851,-8.09857
736.66412,-121.34
737.03979,-124.095
737.41547,-112.128
737.79114,-222.969
738.16681,-284.354
738.54242,-62.8056
738.91809,44.7291
739.29376,-18.8547
739.66943,-82.3445
740.04504,-37.7265
740.42072,-16.5029
740.79639,-100.416
741.17206,-214.618
741.54773,-193.018
741.92334,-120.51
742.29901,-46.2444
742.67468,-24.9054
743.05035,-193.469
743.42596,-78.5539
743.80164,171.803
744.17731,16.4252
744.55298,22.113
744.92859,52.0023
745.30426,-59.9223
745.67993,-78.2675
746.0556,-104.846
746.43127,-119.163
746.80688,-70.8208
747.18256,-48.8485
747.55823,-90.5635
747.9339,-64.8119
748.30951,28.4866
748.68518,-165.749
749.06085,-221.795
749.43652,-19.0302
749.81213,55.6965
750.18781,-91.2521
750.56348,-79.405
750.93915,101.131
751.31482,17.6411
751.69043,43.9918
752.0661,57.6925
752.44177,-58.7371
752.81744,42.1334
753.19305,1.02099
753.56873,-87.2331
753.9444,25.7659
754.32007,-7.57429
754.69574,-26.9555
755.07135,-7.19789
755.44702,-74.8398
755.82269,26.5683
756.19836,88.515
756.57397,12.0077
756.94965,7.9542
757.32532,-64.5201
757.70099,-103.049
758.0766,-46.2256
758.45227,-112.324
758.82794,-224.116
759.20361,-214.963
759.57928,-100.748
759.9549,-159.245
760.33057,-184.618
760.70624,-104.932
761.08191,-65.5959
761.45752,-40.3255
761.83319,-155.074
762.20886,-286.224
762.58453,-149.76
762.96014,-136.896
763.33582,-189.849
763.71149,-120.272
764.08716,-46.748
764.46283,-61.4477
764.83844,-149.058
765.21411,-204.669
765.58978,-135.575
765.96545,-110.336
766.34106,-136.931
766.71674,-80.0093
767.09241,-13.8371
767.46808,-22.6176
767.84369,24.845
768.21936,252.168
768.59503,116.411
768.9707,-172.779
769.34637,-165.849
769.72198,80.7308
770.09766,56.7242
770.47333,-134.04
770.849,-99.964
771.22461,72.4071
771.60028,17.6219
771.97595,-165.022
772.35162,-108.247
772.72729,33.1199
773.10291,29.216
773.47858,-33.8565
773.85425,73.2509
774.22992,1.77837
774.60553,-116.217
774.9812,-99.9487
775.35687,-111.01
775.73254,-108.513
776.10815,-50.1609
776.48383,24.5317
776.8595,31.3159
777.23517,34.7045
777.61084,-42.7183
777.98645,-232.493
778.36212,-168.311
778.73779,-45.9916
779.11346,-73.9256
779.48907,-156.949
779.86475,-139.965
780.24042,-77.4412
780.61609,-82.7301
780.9917,-160.176
781.36737,-214.465
781.74304,-181.831
782.11871,-156.658
782.49438,-319.829
782.87,-285.746
783.24567,-128.138
783.62134,-157.484
783.99701,-77.2682
784.37262,-104.643
784.74829,-196.864
785.12396,-65.118
785.49963,-156.845
785.87524,-133.896
786.25092,134.368
786.62659,67.2115
787.00226,-120.802
787.37793,-115.461
787.75354,20.8276
788.12921,-118.213
788.50488,-126.206
788.88055,-27.7758
789.25616,-110.892
789.63184,-61.265
790.00751,12.7364
790.38318,-25.773
790.75885,-110.965
791.13446,-131.142
791.51013,-66.3455
791.8858,-23.0323
792.26147,-102.343
792.63708,-125.989
793.01276,24.3474
793.38843,123.637
793.7641,-219.001
794.13971,-244.554
794.51538,-11.7358
794.89105,-91.0521
795.26672,-180.817
795.6424,-153.2
796.01801,-98.624
796.39368,-84.0731
796.76935,-49.9943
797.14502,-50.9977
797.52063,-123.634
797.8963,-207.409
798.27197,-4.12535
798.64764,93.1881
799.02325,-125.576
799.39893,-110.464
799.7746,-16.8871
800.15027,8.50062
800.52594,-77.2413
800.90155,-54.1001
801.27722,-12.0112
801.65289,-69.1788
802.02856,-75.9896
802.40417,-175.101
802.77985,-149.953
803.15552,-14.7055
803.53119,-90.8395
803.90686,-84.2086
804.28247,-46.7701
804.65814,-39.3276
805.03381,71.7335
805.40948,-91.64
805.7851,-188.213
806.16077,26.8455
806.53644,-9.81768
806.91211,-82.777
807.28772,-32.9459
807.66339,-146.426
808.03906,-255.004
808.41473,-223.478
808.79041,-142.909
809.16602,47.297
809.54169,59.4726
809.91736,-64.5653
810.29303,-83.9349
810.66864,-147.56
811.04431,-102.223
811.41998,42.5553
811.79565,-31.5127
812.17126,-178.797
812.54694,-143.049
812.92261,-78.9763
813.29828,-64.4537
813.67395,-46.1708
814.04956,-86.0388
814.42523,-106.01
814.8009,33.9857
815.17657,41.7632
815.55219,-117.27
815.92786,-40.1862
816.30353,-75.896
816.6792,-161.265
817.05481,-91.2995
817.43048,-77.768
817.80615,4.90225
818.18182,-30.6978
818.5575,-137.637
818.93311,-47.2419
819.30878,-87.7425
819.68445,-209.087
820.06012,-165.611
820.43573,-136.09
820.8114,-126.777
821.18707,-76.4575
821.56274,-41.5821
821.93842,-43.3702
822.31403,-90.6741
822.6897,-83.2184
823.06537,-46.6723
823.44104,-141.086
823.81665,-103.899
824.19232,56.7258
824.56799,-0.292737
824.94366,-112.647
825.31927,-91.1836
825.69495,70.3389
826.07062,50.3804
826.44629,92.5827
826.82196,198.541
827.19757,88.0582
827.57324,120.498
827.94891,200.69
828.32458,153.938
828.7002,117.808
829.07587,256.772
829.45154,240.939
829.82721,24.7459
830.20282,114.164
830.57849,186.694
830.95416,148.92
831.32983,152.907
831.70551,115.622
832.08112,155.496
832.45679,230.695
832.83246,137.429
833.20813,147.416
833.58374,208.718
833.95941,178.659
834.33508,104.046
834.71075,45.7401
835.08636,8.55439
835.46204,-16.6596
835.83771,-38.6959
836.21338,-70.8398
836.58905,-8.10219
836.96466,75.4755
837.34033,-134.502
837.716,-146.088
838.09167,49.0665
838.46729,63.6877
838.84296,0.391181
839.21863,-48.737
839.5943,-27.0731
839.96997,68.5503
840.34558,119.129
840.72125,100.828
841.09692,103.445
841.4726,191.364
841.84821,131.235
842.22388,-77.1322
842.59955,-179.877
842.97522,29.6818
843.35083,123.102
843.7265,18.7859
844.10217,-61.6619
844.47784,3.40257
844.85352,108.74
845.22913,98.7269
845.6048,-53.1469
845.98047,-152.222
846.35614,-110.227
846.73175,64.8758
847.10742,258.802
847.48309,251.801
847.85876,195.951
848.23438,241.777
848.61005,299.549
848.98572,240.538
849.36139,330.647
849.73706,584.424
850.11267,534.464
850.48834,484.022
850.86401,687.463
851.23969,1102.27
851.6153,1540.26
851.99097,2133.72
852.36664,2957.93
852.74231,4111.98
853.11798,5944.69
853.49359,8238.8
853.86926,9851.69
854.24493,9648.75
854.62061,8293.88
854.99622,6160.37
855.37189,4002.47
855.74756,2813.22
856.12323,1823.81
856.49884,1054.22
856.87451,784.099
857.25018,684.52
857.62585,494.371
858.00153,434.945
858.37714,556.806
858.75281,281.443
859.12848,248.06
859.50415,447.81
859.87976,331.679
860.25543,165.304
860.6311,145.917
861.00677,250.153
861.38239,345.458
861.75806,402.669
862.13373,294.82
862.5094,224.298
862.88507,535.635
863.26068,507.462
863.63635,258.198
864.01202,245.774
864.3877,382.36
864.76331,311.183
865.13898,338.281
865.51465,683.041
865.89032,635.787
866.26593,576.178
866.6416,727.701
867.01727,909.194
867.39294,1150.78
867.76862,1512.76
868.14423,1943.87
868.5199,2346.72
868.89557,2801.03
869.27124,3192.47
869.64685,3633.12
870.02252,4442.05
870.39819,5186.39
870.77386,6154.24
871.14954,7814.36
871.52515,10115.8
871.90082,13316.2
872.27649,17643
872.65216,23037.2
873.02777,29088.6
873.40344,35392.9
873.77911,40401.2
874.15479,42200.6
874.5304,40589.6
874.90607,36048.7
875.28174,30180.4
875.65741,24885.5
876.03308,19998.1
876.40869,15851.2
876.78436,12784.7
877.16003,10594
877.53571,9270.43
877.91132,8286.99
878.28699,7250.44
878.66266,6478.56
879.03833,5830.58
879.41394,5301.44
879.78961,4980.76
880.16528,4713.54
880.54095,4419.17
880.91663,4144.36
881.29224,3982.67
881.66791,3944.49
882.04358,4089.3
882.41925,4335.58
882.79486,4553.06
883.17053,4987.9
883.5462,5416.62
883.92188,5700.72
884.29749,6166.02
884.67316,6916.17
885.04883,8114.89
885.4245,9888.29
885.80017,12046.9
886.17578,13883.1
886.55145,15089.9
886.92712,15883.6
887.3028,16615.5
887.67841,17406
888.05408,17962.5
888.42975,17986.1
888.80542,17907.7
889.18109,17889.5
889.5567,18007.5
889.93237,18323.3
890.30804,18557.8
890.68372,18781.9
891.05933,19113.8
891.435,19472.2
891.81067,20072
892.18634,21557.2
892.56195,24090
892.93762,26770
893.31329,29571.7
893.68896,32562.2
894.06464,35790
894.44025,39607.5
894.81592,44148.5
895.19159,48991.4
895.56726,53614.7
895.94287,58266.8
896.31854,62147
896.69421,65925.9
897.06989,71770.8
897.4455,78816.2
897.82117,86843.4
898.19684,95444.4
898.57251,102725
898.94818,106447
899.32379,105880
899.69946,101367
900.07513,93443.2
900.45081,83772.6
900.82642,73602.7
901.20209,63580.9
901.57776,54381
901.95343,45866.4
902.3291,38306.8
902.70471,32456.2
903.08038,28325.6
903.45605,25809.8
903.83173,24069.9
904.20734,21921.2
904.58301,20012.2
904.95868,18368.6
905.33435,16836.9
905.70996,15739.7
906.08563,14680.4
906.4613,13658.3
906.83698,12843.6
907.21265,12015.8
907.58826,11449.2
907.96393,11582.8
908.3396,12696.3
908.71527,14583.7
909.09088,16043.5
909.46655,16566
909.84222,16535.3
910.2179,15757.4
910.59351,14836.6
910.96918,14118.1
911.34485,13197.4
911.72052,12252.8
912.09619,11427.8
912.4718,10645.2
912.84747,9786.79
913.22314,9271.51
913.59882,9022.32
913.97443,8803.51
914.3501,8921.75
914.72577,9302.24
915.10144,9652.1
915.47705,9836.56
915.85272,10131.7
916.22839,10238.1
916.60406,10357.6
916.97974,11015.8
917.35535,11391.4
917.73102,11701.8
918.10669,12215.3
918.48236,12611.2
918.85797,13390.7
919.23364,15139.1
919.60931,18135.1
919.98499,22126.2
920.36066,26210.2
920.73627,30221.8
921.11194,34043.3
921.48761,36534.3
921.86328,37935.3
922.23889,38713.3
922.61456,39077.8
922.99023,39318.7
923.36591,39803
923.74152,40310.8
924.11719,40165.9
924.49286,39406.7
924.86853,38414.7
925.2442,37933.8
925.61981,38929.2
925.99548,41815.1
926.37115,45705.5
926.74683,49330.3
927.12244,52214.7
927.49811,54669.3
927.87378,56425.4
928.24945,57238.7
928.62506,57969.6
929.00073,58468.8
929.3764,58419.5
929.75208,57737.4
930.12775,56291.1
930.50336,53741.1
930.87903,49989.2
931.2547,45443.9
931.63037,40927.4
932.00598,37626.1
932.38165,36175.2
932.75732,35968.5
933.133,35485.9
933.50867,34057.8
933.88428,32049.8
934.25995,30173.3
934.63562,28176
935.01129,26196.1
935.3869,24534.1
935.76257,22771.4
936.13824,21030
936.51392,19304.2
936.88953,17377.9
937.2652,15438.9
937.64087,13991.8
938.01654,13322.9
938.39221,13205.2
938.76782,13095.1
939.14349,13014.6
939.51917,12993.1
939.89484,12738.1
940.27045,12561
940.64612,12437.3
941.02179,12155.5
941.39746,11827.9
941.77307,11843.7
942.14874,11929.3
942.52441,11540.4
942.90009,10850.9
943.27576,10097.8
943.65137,9576.65
944.02704,9392.16
944.40271,9082.97
944.77838,8957.7
945.15399,9275.27
945.52966,9727.95
945.90533,10001.2
946.28101,10296.5
946.65662,10607.8
947.03229,10477.1
947.40796,10477.5
947.78363,10614.5
948.1593,10559
948.53491,10448.2
948.91058,10500
949.28625,10388.6
949.66193,9789.83
950.03754,9303.58
950.41321,9060.05
950.78888,9001.53
951.16455,9161.52
951.54022,9655.19
951.91583,10314.7
952.2915,11054.1
952.66718,11898.9
953.04285,12404.5
953.41846,12677.8
953.79413,13008.7
954.1698,13395.8
954.54547,13847.4
954.92108,14240.7
955.29675,14508.4
955.67242,14768.7
956.0481,14696.7
956.42377,14188.3
956.79938,13616.8
957.17505,13585.7
957.55072,13978.5
957.92639,14642.9
958.302,15675.3
958.67767,17028.8
959.05334,18074.7
959.42902,18771
959.80463,19755.4
960.1803,20430.6
960.55597,20683.9
960.93164,20928.6
961.30731,21525.2
961.68292,22162.8
962.05859,22317.5
962.43427,21726.7
962.80994,20696.8
963.18555,19767.2
963.56122,19356.7
963.93689,19665.1
964.31256,20711.3
964.68817,22257.5
965.06384,23834.9
965.43951,25028.3
965.81519,25939.9
966.19086,26474.7
966.56647,26661.9
966.94214,26663.8
967.31781,26066.6
967.69348,25586.2
968.06909,25602.4
968.44476,25104.1
968.82043,24249.5
969.19611,23130.9
969.57178,21676.6
969.94739,20149.7
970.32306,19169.3
970.69873,18614.2
971.0744,19063.7
971.45001,25763.8
971.82568,52415.2
972.20135,92711.2
972.57703,126553
972.95264,163250
973.32831,207700
973.70398,256594
974.07965,303551
974.45532,345690
974.83093,378359
975.2066,395904
975.58228,392790
975.95795,361781
976.33356,315335
976.70923,270622
977.0849,225852
977.46057,179718
977.83618,136824
978.21185,102953
978.58752,76584.5
978.9632,56782.1
979.33887,42718.5
979.71448,32980.5
980.09015,26295.1
980.46582,21892.6
980.84149,19092
981.2171,17206.6
981.59277,16151.2
981.96844,15441.3
982.34412,14989.9
982.71979,15489.3
983.0954,16175.6
983.47107,17058.1
983.84674,18270.9
984.22241,18680.5
984.59802,18125.9
984.97369,16949.3
985.34937,15526.8
985.72504,14083.3
986.10065,12935.7
986.47632,12033.4
986.85199,11157.6
987.22766,10767.9
987.60333,10450.8
987.97894,9952.88
988.35461,9691.72
988.73029,9409.34
989.10596,9153.05
989.48157,9005.21
989.85724,8729.79
990.23291,8439.4
990.60858,8129.25
990.98419,7742.07
991.35986,7404.28
991.73553,7070.19
992.11121,6846.47
992.48688,6806.06
992.86249,6619.08
993.23816,6816.57
993.61383,7622.37
993.9895,8558.68
994.36511,9370.28
994.74078,10380.4
995.11646,11854.3
995.49213,13610.3
995.86774,15429.4
996.24341,17199.5
996.61908,18728.9
996.99475,19741.3
997.37042,20540
997.74603,20803.2
998.1217,20130.8
998.49738,19059.1
998.87305,17886.5
999.24866,16714.8
999.62433,15518.9
1000,14224.6
