Date and Time:                Mon Jan 17 23:17:09.000 2022
Software Version:             4.31.30023.0
Temperature (C):              -50
Model:                        DU420_BVF
Data Type:                    Counts (Bg Corrected)
Acquisition Mode:             Accumulate
Trigger Mode:                 Internal
Exposure Time (secs):         0.09999
Accumulate Cycle Time (secs): 0.09999
Frequency (Hz):               10.001
Number of Accumulations:      1000
Readout Mode:                 Full Vertical Binning
Horizontal binning:           1
Extended Dynamic Range:       off
Horizontally flipped:         false
Vertical Shift Speed (usecs): 8.25
Pixel Readout Time (usecs):   30.303
Serial Number:                22942
Pre-Amplifier Gain:           1.000000
Spurious Noise Filter Mode:   No Filter
Photon counted:               false
Data Averaging Filter Mode:   No Filter
KY328i:
Serial Number:                
Wavelength (nm):              889.526
Grating Groove Density (l/mm):150.012
Grating Blaze:                500nm
Output Flipper Port:          Direct
Filter:                       6-785 LP



380,-2953.82
380.4744,-3000.77
380.94882,-2946.83
381.42325,-2873.41
381.89767,-2884.14
382.37207,-2905.17
382.8465,-2898.85
383.32092,-2939.03
383.79535,-3156.24
384.26974,-3050.9
384.74417,-2889.32
385.2186,-3051.45
385.69302,-3087.01
386.16742,-3141.31
386.64185,-3046.17
387.11627,-2880.34
387.5907,-2956.35
388.06509,-2976.86
388.53952,-2993.21
389.01395,-2930.74
389.48837,-2959.41
389.96277,-3025.45
390.43719,-2979.56
390.91162,-2995.93
391.38605,-3021.55
391.86044,-2978.99
392.33487,-2981.64
392.8093,-3086.86
393.28372,-2892.1
393.75812,-2995.43
394.23254,-3037.6
394.70697,-3062.88
395.1814,-2961.43
395.65579,-2980.89
396.13022,-3056.94
396.60464,-2999.27
397.07907,-2960.69
397.55347,-2910.11
398.02789,-2963.31
398.50232,-3024.78
398.97675,-3068.07
399.45114,-2945.81
399.92557,-3013.81
400.39999,-3019.36
400.87442,-2915.99
401.34882,-3007.48
401.82324,-2963.35
402.29767,-2867.07
402.77209,-3015.25
403.24649,-3012.54
403.72092,-2807.29
404.19534,-2877.31
404.66977,-3013.87
405.14417,-2809.57
405.61859,-2981.11
406.09302,-2885.31
406.56744,-2997.58
407.04184,-2704.57
407.51627,-1941.36
407.99069,-905.917
408.46512,337.033
408.93951,907.861
409.41394,1101.17
409.88837,1078.35
410.36279,312.612
410.83719,-1114.26
411.31161,-2172.46
411.78604,-2573.3
412.26047,-2661.9
412.73486,-2981.08
413.20929,-2916.3
413.68372,-2787.9
414.15814,-2870.65
414.63254,-2883.93
415.10696,-2978.11
415.58139,-2996.97
416.05582,-2831.59
416.53021,-2936.46
417.00464,-3028.94
417.47906,-2988.08
417.95349,-3060.81
418.42789,-3191.25
418.90231,-2987.26
419.37674,-2850.64
419.85117,-2921.69
420.32556,-2879.56
420.79999,-2853.23
421.27441,-3051.51
421.74884,-3144.97
422.22324,-2868.99
422.69766,-2864.12
423.17209,-3144.26
423.64651,-2983.72
424.12091,-2967.08
424.59534,-3021.88
425.06976,-3074.42
425.54419,-2959.46
426.01859,-2715.36
426.49301,-2851.15
426.96744,-2996.63
427.44186,-2905.73
427.91626,-2923.83
428.39069,-2993.66
428.86511,-2936.52
429.33954,-2987.68
429.81393,-3052.92
430.28836,-3173.09
430.76279,-3153.07
431.23721,-2974.91
431.71161,-2992.23
432.18604,-3074.64
432.66046,-3089.84
433.13489,-3148.3
433.60928,-3142.13
434.08371,-3095.39
434.55814,-2942.29
435.03256,-2991.25
435.50696,-2873.4
435.98138,-2863.6
436.45581,-3001.18
436.93024,-3030.48
437.40463,-2994.77
437.87906,-2927.1
438.35349,-2841.52
438.82791,-2891.07
439.30231,-2838.35
439.77673,-2604.86
440.25116,-2708.42
440.72559,-2825.18
441.19998,-2937.47
441.67441,-3098.64
442.14883,-3058.57
442.62326,-2994.63
443.09766,-2976.89
443.57208,-2953
444.04651,-2847.6
444.52094,-2850.02
444.99533,-3023.42
445.46976,-2978.01
445.94418,-2839.02
446.41861,-2970.62
446.89301,-3106.68
447.36743,-2900.55
447.84186,-3100.45
448.31628,-3061.76
448.79068,-2729.29
449.26511,-2954.65
449.73953,-3020.8
450.21396,-2842.35
450.68835,-2933.77
451.16278,-2815.43
451.63721,-3010.69
452.11163,-3074.28
452.58603,-2849.7
453.06046,-3009.38
453.53488,-3012.03
454.00931,-2958.55
454.4837,-2853.96
454.95813,-2980.32
455.43256,-2831.95
455.90698,-2904.84
456.38138,-3054.41
456.8558,-2967.72
457.33023,-3090.1
457.80466,-3141.53
458.27905,-2895.2
458.75348,-2675.28
459.22791,-2840.13
459.70233,-2950.8
460.17673,-2883.95
460.65115,-2896.27
461.12558,-3004.05
461.60001,-2808.92
462.0744,-2839.17
462.54883,-2996.52
463.02325,-3003.55
463.49768,-2934.5
463.97208,-2757.5
464.4465,-2821.67
464.92093,-3055.08
465.39536,-3050.29
465.86975,-2857.67
466.34418,-2898.62
466.8186,-2945.27
467.29303,-2936.11
467.76743,-2871.06
468.24185,-2973.69
468.71628,-2967.44
469.1907,-2769.38
469.6651,-2820.95
470.13953,-2831.77
470.61395,-2878.84
471.08838,-2856.02
471.56277,-2788.15
472.0372,-2864.33
472.51163,-2931.49
472.98605,-2889.84
473.46045,-2933.71
473.93488,-2954
474.4093,-2823.1
474.88373,-2774.92
475.35812,-2804.44
475.83255,-2835.43
476.30698,-2937.26
476.7814,-2965.14
477.2558,-2923.53
477.73022,-2791.81
478.20465,-2800.26
478.67908,-2857.29
479.15347,-2928.07
479.6279,-2847.02
480.10233,-2785.39
480.57675,-2831
481.05115,-2928.8
481.52557,-2912.37
482,-2918.35
482.47443,-2874.06
482.94882,-2969.03
483.42325,-2880.7
483.89767,-2808.86
484.3721,-2799.7
484.8465,-2851.01
485.32092,-2854.64
485.79535,-2793.47
486.26978,-2881.41
486.74417,-2876.08
487.2186,-2747.48
487.69302,-2734.19
488.16745,-2787.39
488.64185,-2754.05
489.11627,-2741.93
489.5907,-2763.4
490.06512,-2615.82
490.53952,-2773.22
491.01395,-2748.6
491.48837,-2678.68
491.9628,-2793.6
492.43719,-2840.29
492.91162,-2793.77
493.38605,-2724.7
493.86047,-2735.08
494.33487,-2677.63
494.8093,-2749.29
495.28372,-2767.41
495.75815,-2722.9
496.23254,-2765.18
496.70697,-2712.43
497.1814,-2663.43
497.65582,-2792.78
498.13022,-2773.77
498.60464,-2782.9
499.07907,-2759.73
499.5535,-2704.05
500.02789,-2677.63
500.50232,-2790.7
500.97675,-2791.34
501.45114,-2745.23
501.92557,-2751.59
502.39999,-2787.24
502.87442,-2720.47
503.34882,-2744.43
503.82324,-2892.36
504.29767,-2797.43
504.77209,-2716.48
505.24649,-2764.91
505.72092,-2739.95
506.19534,-2745.84
506.66977,-2650.51
507.14417,-2673.4
507.61859,-2760.94
508.09302,-2696.28
508.56744,-2708.33
509.04184,-2815.99
509.51627,-2742.65
509.99069,-2663.95
510.46512,-2671.96
510.93951,-2723.62
511.41394,-2920.05
511.88837,-2740.26
512.36279,-2589.12
512.83722,-2677.38
513.31165,-2647.24
513.78601,-2615.88
514.26044,-2765.35
514.73486,-2680.16
515.20929,-2527.27
515.68372,-2622.59
516.15814,-2679.97
516.63257,-2665.63
517.10699,-2803.79
517.58136,-2808.65
518.05579,-2753.9
518.53021,-2733.54
519.00464,-2714.72
519.47906,-2767.28
519.95349,-2745.56
520.42792,-2695.12
520.90234,-2524.37
521.37671,-2609.93
521.85114,-2667.57
522.32556,-2655.02
522.79999,-2783.16
523.27441,-2658.53
523.74884,-2648.62
524.22327,-2796.54
524.69769,-2327.66
525.17206,-2665.82
525.64648,-2822.61
526.12091,-2616.47
526.59534,-2551.3
527.06976,-2709.8
527.54419,-2686
528.01862,-2633.18
528.49304,-2708.88
528.96741,-2723.48
529.44183,-2902.18
529.91626,-2785.65
530.39069,-2577.33
530.86511,-2839.65
531.33954,-2808.6
531.81396,-2713.23
532.28839,-2788.7
532.76276,-2551.37
533.23718,-2569.37
533.71161,-2695.37
534.18604,-2705.76
534.66046,-2667.23
535.13489,-2608.95
535.60931,-2610.03
536.08374,-2615.93
536.55811,-2791.93
537.03253,-2709.49
537.50696,-2654.8
537.98138,-2585.87
538.45581,-2625.83
538.93024,-2557.99
539.40466,-2659.61
539.87909,-2741.42
540.35345,-2725.25
540.82788,-2606.84
541.30231,-2599.33
541.77673,-2819.78
542.25116,-2737.76
542.72559,-2526.71
543.20001,-2646.9
543.67444,-2516.44
544.1488,-2461.97
544.62323,-2462.52
545.09766,-2489.54
545.57208,-2514.34
546.04651,-2547.2
546.52094,-2504.58
546.99536,-2345.43
547.46979,-2299.04
547.94415,-2473.87
548.41858,-2469.7
548.89301,-2337.37
549.36743,-2528.89
549.84186,-2507.67
550.31628,-2492.55
550.79071,-2517.12
551.26514,-2598.63
551.7395,-2646.62
552.21393,-2632.69
552.68835,-2568.88
553.16278,-2741.09
553.63721,-2776.5
554.11163,-2625.88
554.58606,-2673.43
555.06049,-2569.68
555.53485,-2672.33
556.00928,-2813.05
556.4837,-2630.85
556.95813,-2591.75
557.43256,-2779.63
557.90698,-2514.57
558.38141,-2675.86
558.85583,-2620.21
559.3302,-2597.65
559.80463,-2740.06
560.27905,-2604.94
560.75348,-2803.37
561.22791,-2724.32
561.70233,-2582.1
562.17676,-2632.84
562.65118,-2628.05
563.12555,-2623.63
563.59998,-2637.17
564.0744,-2671.22
564.54883,-2573.86
565.02325,-2610.95
565.49768,-2549.85
565.97211,-2483.2
566.44653,-2612.99
566.9209,-2686.06
567.39532,-2742.36
567.86975,-2785.09
568.34418,-2621.16
568.8186,-2702.08
569.29303,-2778.07
569.76746,-2657.23
570.24188,-2611.63
570.71625,-2586.34
571.19067,-2721.83
571.6651,-2605.28
572.13953,-2370.47
572.61395,-2526.59
573.08838,-2617.36
573.56281,-2569.47
574.03723,-2613.51
574.5116,-2624.33
574.98602,-2577.75
575.46045,-2614.69
575.93488,-2625.91
576.4093,-2707.52
576.88373,-2571.48
577.35815,-2530.54
577.83258,-2667.11
578.30695,-2785.47
578.78137,-2553.14
579.2558,-2426.32
579.73022,-2769.03
580.20465,-2707.34
580.67908,-2620.02
581.1535,-2608
581.62793,-2494.78
582.10229,-2559.24
582.57672,-2646.2
583.05115,-2664.24
583.52557,-2562.13
584,-2494.74
584.47443,-2607.6
584.94885,-2785.88
585.42328,-2821.06
585.89764,-2618.87
586.37207,-2557.47
586.8465,-2613.78
587.32092,-2402.38
587.79535,-2616.34
588.26978,-2643.37
588.7442,-2389.43
589.21863,-2366.95
589.69299,-2681.4
590.16742,-2600.81
590.64185,-2379.73
591.11627,-2493.61
591.5907,-2443.18
592.06512,-2352.92
592.53955,-2502.49
593.01398,-2469.82
593.48834,-2544.92
593.96277,-2614.24
594.43719,-2780.65
594.91162,-2676.58
595.38605,-2577.97
595.86047,-2694.25
596.3349,-2645.15
596.80933,-2701.8
597.28369,-2495.52
597.75812,-2411.08
598.23254,-2637.76
598.70697,-2585.79
599.1814,-2490.11
599.65582,-2418.83
600.13025,-2466.85
600.60468,-2457.72
601.07904,-2459.9
601.55347,-2528.51
602.02789,-2444.42
602.50232,-2423.3
602.97675,-2568.52
603.45117,-2528.59
603.9256,-2409.94
604.40002,-2469.57
604.87439,-2449.28
605.34882,-2383.25
605.82324,-2376.13
606.29767,-2413.71
606.77209,-2532.35
607.24652,-2519.96
607.72095,-2435.33
608.19537,-2471.5
608.66974,-2535.24
609.14417,-2513.17
609.61859,-2452.21
610.09302,-2415.72
610.56744,-2412.51
611.04187,-2387.68
611.5163,-2259.07
611.99072,-2230.07
612.46509,-2339.95
612.93951,-2251.03
613.41394,-2190.64
613.88837,-2133.52
614.36279,-2033.73
614.83722,-2155.36
615.31165,-2222.1
615.78607,-2241.32
616.26044,-2258.25
616.73486,-2361.6
617.20929,-2401.9
617.68372,-2301.45
618.15814,-2393.67
618.63257,-2406.22
619.10699,-2399.06
619.58142,-2416.12
620.05579,-2372.83
620.53021,-2368.27
621.00464,-2501.49
621.47906,-2472.39
621.95349,-2324.03
622.42792,-2226.97
622.90234,-2297.71
623.37671,-2356.92
623.85114,-2196.69
624.32556,-2232.72
624.79999,-2362.01
625.27441,-2300.19
625.74884,-2473.33
626.22327,-2328.29
626.69769,-2375.67
627.17206,-2539.13
627.64648,-2455.24
628.12091,-2407.9
628.59534,-2565.45
629.06976,-2457.36
629.54419,-2302.44
630.01862,-2485.8
630.49304,-2469.46
630.96741,-2371.2
631.44183,-2388.76
631.91626,-2393.25
632.39069,-2374.3
632.86511,-2333.97
633.33954,-2534.67
633.81396,-2485.21
634.28839,-2414.21
634.76276,-2429.44
635.23718,-2489.88
635.71161,-2480.51
636.18604,-2369.8
636.66046,-2486.32
637.13489,-2476.36
637.60931,-2380.27
638.08374,-2466.5
638.55811,-2638.6
639.03253,-2529.49
639.50696,-2371.06
639.98138,-2528.59
640.45581,-2697.86
640.93024,-2494.62
641.40466,-2353.26
641.87909,-2533.97
642.35345,-2574.39
642.82788,-2527.96
643.30231,-2673.97
643.77673,-2636.28
644.25116,-2640.34
644.72559,-2560.6
645.20001,-2560.19
645.67444,-2619
646.1488,-2484.88
646.62323,-2335.98
647.09766,-2623.2
647.57208,-2748.67
648.04651,-2611.6
648.52094,-2732.25
648.99536,-2755.64
649.46979,-2561.5
649.94415,-2451.99
650.41858,-2539.3
650.89301,-2597.31
651.36743,-2632.07
651.84186,-2856.55
652.31628,-2572.85
652.79071,-2386.25
653.26514,-2570.81
653.7395,-2551.59
654.21393,-2364.78
654.68835,-2453.43
655.16278,-2692.29
655.63721,-2604.06
656.11163,-2422.69
656.58606,-2547.52
657.06049,-2714.41
657.53485,-2690.09
658.00928,-2764.9
658.4837,-2715.98
658.95813,-2393.59
659.43256,-2688.68
659.90698,-2673.11
660.38141,-2449.07
660.85583,-2572.33
661.3302,-2421.26
661.80463,-2528.58
662.27905,-2827.47
662.75348,-2592.73
663.22791,-2743.17
663.70233,-2590.12
664.17676,-2493.16
664.65118,-2747.35
665.12555,-2619.3
665.59998,-2529.91
666.0744,-2589.27
666.54883,-2635.23
667.02325,-2621.37
667.49768,-2614.98
667.97211,-2703.47
668.44653,-2640.81
668.9209,-2534.1
669.39532,-2622.89
669.86975,-2672.17
670.34418,-2556.95
670.8186,-2564.42
671.29303,-2570.57
671.76746,-2424.91
672.24188,-2552.55
672.71625,-2648.2
673.19067,-2638.97
673.6651,-2700.21
674.13953,-2540.35
674.61395,-2518.66
675.08838,-2736.95
675.56281,-2730.09
676.03723,-2511.74
676.5116,-2697.27
676.98602,-2720.7
677.46045,-2465.28
677.93488,-2558.57
678.4093,-2684.73
678.88373,-2557.52
679.35815,-2578.11
679.83258,-2584.62
680.30695,-2462.26
680.78137,-2642.44
681.2558,-2638.27
681.73022,-2443.02
682.20465,-2467.45
682.67908,-2618.16
683.1535,-2679.58
683.62793,-2665.2
684.10229,-2558.71
684.57672,-2608.51
685.05115,-2581.44
685.52557,-2522.75
686,-2592.8
686.47443,-2612.03
686.94885,-2643.35
687.42328,-2627.08
687.89764,-2565.96
688.37207,-2614.2
688.8465,-2550.86
689.32092,-2554.21
689.79535,-2614.58
690.26978,-2480.41
690.7442,-2508.97
691.21863,-2662.32
691.69299,-2608.67
692.16742,-2500.14
692.64185,-2611.19
693.11627,-2715.65
693.5907,-2571.22
694.06512,-2596.77
694.53955,-2564.51
695.01398,-2627.32
695.48834,-2572.33
695.96277,-2612.3
696.43719,-2630.2
696.91162,-2607.25
697.38605,-2594.7
697.86047,-2562.97
698.3349,-2661.77
698.80933,-2589.1
699.28369,-2558.03
699.75812,-2598.95
700.23254,-2559.66
700.70697,-2708.56
701.1814,-2613.07
701.65582,-2512.29
702.13025,-2659.7
702.60468,-2720.72
703.07904,-2565.73
703.55347,-2612.83
704.02789,-2525.79
704.50232,-2426.61
704.97675,-2636.2
705.45117,-2529.42
705.9256,-2494.48
706.40002,-2577.44
706.87439,-2570.29
707.34882,-2661.65
707.82324,-2579.81
708.29767,-2604.32
708.77209,-2685.23
709.24652,-2499.64
709.72095,-2354.52
710.19537,-2463.9
710.66974,-2515.62
711.14417,-2493.93
711.61859,-2588.49
712.09302,-2561.19
712.56744,-2479.95
713.04187,-2449.02
713.5163,-2562.89
713.99072,-2534.83
714.46509,-2433.14
714.93951,-2535.48
715.41394,-2482.37
715.88837,-2477.42
716.36279,-2516.17
716.83722,-2458.24
717.31165,-2493.21
717.78607,-2565.94
718.26044,-2634.11
718.73486,-2552.01
719.20929,-2518.97
719.68372,-2407.8
720.15814,-2477.96
720.63257,-2443.61
721.10699,-2681.7
721.58142,-2700.4
722.05579,-2499.28
722.53021,-2567.81
723.00464,-2520.73
723.47906,-2563.89
723.95349,-2680.56
724.42792,-2613.4
724.90234,-2486.73
725.37677,-2461.59
725.85114,-2515.86
726.32556,-2622.53
726.79999,-2511.89
727.27441,-2652.61
727.74884,-2653.78
728.22327,-2482.44
728.69769,-2514.98
729.17212,-2757.78
729.64648,-2757.65
730.12091,-2538.57
730.59534,-2508.46
731.06976,-2492.01
731.54419,-2570.14
732.01862,-2471.52
732.49304,-2588.69
732.96747,-2637.08
733.44183,-2534.65
733.91626,-2713.21
734.39069,-2496.29
734.86511,-2459.46
735.33954,-2699.89
735.81396,-2614.2
736.28839,-2387.27
736.76282,-2453.86
737.23718,-2590.46
737.71161,-2479.57
738.18604,-2511.99
738.66046,-2494.24
739.13489,-2495.42
739.60931,-2603.07
740.08374,-2583.58
740.55817,-2661.8
741.03253,-2720.86
741.50696,-2606.18
741.98138,-2604.91
742.45581,-2551.55
742.93024,-2479.21
743.40466,-2541.26
743.87909,-2604.37
744.35345,-2568.5
744.82788,-2545.19
745.30231,-2640.8
745.77673,-2480.85
746.25116,-2553.84
746.72559,-2591.37
747.20001,-2541.68
747.67444,-2541.5
748.1488,-2523.75
748.62323,-2490.83
749.09766,-2415.74
749.57208,-2478.81
750.04651,-2641.98
750.52094,-2527.13
750.99536,-2486.9
751.46979,-2721.71
751.94415,-2624.75
752.41858,-2417.22
752.89301,-2693.85
753.36743,-2539.98
753.84186,-2500.48
754.31628,-2562.28
754.79071,-2553.68
755.26514,-2517.37
755.7395,-2489.75
756.21393,-2721.52
756.68835,-2762.68
757.16278,-2517.67
757.63721,-2653.32
758.11163,-2771.81
758.58606,-2609.4
759.06049,-2583.2
759.53485,-2664.08
760.00928,-2625.09
760.4837,-2608.04
760.95813,-2463.36
761.43256,-2517.76
761.90698,-2650.02
762.38141,-2472.34
762.85583,-2523.08
763.3302,-2771.16
763.80463,-2635.02
764.27905,-2635.97
764.75348,-2511.94
765.22791,-2715.79
765.70233,-2737.77
766.17676,-2504.21
766.65118,-2401.5
767.12555,-2448.67
767.59998,-2339.56
768.0744,-2397.3
768.54883,-2410.07
769.02325,-2537.31
769.49768,-2599.16
769.97211,-2454.08
770.44653,-2683.58
770.9209,-2783.67
771.39532,-2612.59
771.86975,-2646.06
772.34418,-2524.38
772.8186,-2421.29
773.29303,-2642.1
773.76746,-2600.71
774.24188,-2451.3
774.71625,-2450.49
775.19067,-2455.77
775.6651,-2438.3
776.13953,-2547.54
776.61395,-2598.69
777.08838,-2453.7
777.56281,-2540.1
778.03723,-2615.56
778.5116,-2691.55
778.98602,-2726.22
779.46045,-2703.03
779.93488,-2622.34
780.4093,-2508.25
780.88373,-2627.55
781.35815,-2664.87
781.83258,-2524.37
782.30695,-2532.09
782.78137,-2460.08
783.2558,-2559.21
783.73022,-2592.15
784.20465,-2432.8
784.67908,-2635.55
785.1535,-2709.99
785.62793,-2523.89
786.10229,-2766.78
786.57672,-2643.32
787.05115,-2550.85
787.52557,-2658.06
788,-2653.92
788.47443,-2513.19
788.94885,-2648.45
789.42328,-2896.49
789.89764,-2647.59
790.37207,-2657.08
790.8465,-2737.29
791.32092,-2574.28
791.79535,-2728.62
792.26978,-2752.05
792.7442,-2575.33
793.21863,-2596.05
793.69299,-2517
794.16742,-2584.28
794.64185,-2588.16
795.11627,-2733.9
795.5907,-2661.68
796.06512,-2448.62
796.53955,-2559.15
797.01398,-2306.23
797.48834,-2556.57
797.96277,-2573.02
798.43719,-2259.17
798.91162,-2360.69
799.38605,-2471.06
799.86047,-2312.87
800.3349,-2335.6
800.80933,-2520.14
801.28369,-2549.97
801.75812,-2535.28
802.23254,-2569.1
802.70697,-2487.58
803.1814,-2474.11
803.65582,-2646.09
804.13025,-2521.26
804.60468,-2160.55
805.07904,-2158.68
805.55347,-2316.03
806.02789,-2579.54
806.50232,-2607.21
806.97675,-2410.77
807.45117,-2358.18
807.9256,-2516.91
808.40002,-2589.11
808.87439,-2440.44
809.34882,-2421.86
809.82324,-2589.01
810.29767,-2629.19
810.77209,-2513.26
811.24652,-2540.24
811.72095,-2658.71
812.19537,-2427.02
812.66974,-2580.7
813.14417,-2042.49
813.61859,-1621.33
814.09302,-1382.99
814.56744,-731.027
815.04187,-207.292
815.5163,-151.093
815.99072,-509.036
816.46509,-935.393
816.93951,-1654.35
817.41394,-2422.91
817.88837,-2474.84
818.36279,-2616.41
818.83722,-2747.3
819.31165,-2533.36
819.78607,-2610.35
820.26044,-2633.04
820.73486,-2470.66
821.20929,-2614.45
821.68372,-2659.81
822.15814,-2502.64
822.63257,-2570.34
823.10699,-2473.61
823.58142,-2497.19
824.05579,-2605.06
824.53021,-2543.17
825.00464,-2468.62
825.47906,-2603.79
825.95349,-2640.16
826.42792,-2592.89
826.90234,-2540.52
827.37677,-2555.21
827.85114,-2502.08
828.32556,-2478.65
828.79999,-2416.32
829.27441,-2239.33
829.74884,-2199.27
830.22327,-2155.79
830.69769,-2137.97
831.17212,-2182.68
831.64648,-2331.71
832.12091,-2280.25
832.59534,-2459.62
833.06976,-2552.38
833.54419,-2316.37
834.01862,-2441.91
834.49304,-2561.88
834.96747,-2613.94
835.44183,-2730.29
835.91626,-2598.4
836.39069,-2688.05
836.86511,-2728.06
837.33954,-2398.34
837.81396,-2792.08
838.28839,-2737.47
838.76282,-2514.9
839.23718,-2619.91
839.71161,-2486.47
840.18604,-2422.92
840.66046,-2527.06
841.13489,-2615.95
841.60931,-2714.13
842.08374,-2570.76
842.55817,-2496.27
843.03253,-2351.86
843.50696,-2217.97
843.98138,-2139.07
844.45581,-1866.12
844.93024,-1661.23
845.40466,-1354.81
845.87909,-1339.96
846.35352,-1345.74
846.82788,-1527.3
847.30231,-1788.17
847.77673,-2098.47
848.25116,-2520.31
848.72559,-2572.4
849.20001,-2457.75
849.67444,-2581.75
850.14886,-2673.43
850.62323,-2665.88
851.09766,-2512.45
851.57208,-2627.21
852.04651,-2633.05
852.52094,-2672.16
852.99536,-2669.71
853.46979,-2695.35
853.94421,-2686.78
854.41858,-2567.92
854.89301,-2430.8
855.36743,-2256.8
855.84186,-2199.94
856.31628,-2314.89
856.79071,-2321.84
857.26514,-2304.58
857.73956,-2453.19
858.21393,-2704.88
858.68835,-2705.85
859.16278,-2514.14
859.63721,-2504.76
860.11163,-2594.53
860.58606,-2632.57
861.06049,-2743.42
861.53491,-2659.4
862.00928,-2529.49
862.4837,-2698.87
862.95813,-2716.79
863.43256,-2474.43
863.90698,-2531.53
864.38141,-2577.33
864.85583,-2487.53
865.3302,-2449.6
865.80463,-2453.88
866.27905,-2645.83
866.75348,-2653.02
867.22791,-2591.62
867.70233,-2682.17
868.17676,-2383.85
868.65118,-2456.07
869.12555,-2705.35
869.59998,-2534.48
870.0744,-2584.13
870.54883,-2567.1
871.02325,-2454.86
871.49768,-2725.97
871.97211,-2657.23
872.44653,-2695.09
872.9209,-2639.3
873.39532,-2494.42
873.86975,-2627.1
874.34418,-2723.16
874.8186,-2581.62
875.29303,-2507.09
875.76746,-2626.96
876.24188,-2782.22
876.71625,-2701.19
877.19067,-2655.13
877.6651,-2649.83
878.13953,-2460.29
878.61395,-2590.63
879.08838,-2495.16
879.56281,-2602.72
880.03723,-2559.48
880.5116,-2514.82
880.98602,-2530.19
881.46045,-2454.97
881.93488,-2631.96
882.4093,-2786.94
882.88373,-2654.54
883.35815,-2524.5
883.83258,-2567.29
884.30695,-2684.86
884.78137,-2702.78
885.2558,-2513.07
885.73022,-2569.65
886.20465,-2627.25
886.67908,-2594.45
887.1535,-2558.13
887.62793,-2635.13
888.10229,-2702.72
888.57672,-2662.67
889.05115,-2669.52
889.52557,-2540.92
890,-2598.75
890.47443,-2745.06
890.94885,-2565.31
891.42328,-2617.52
891.89764,-2589.44
892.37207,-2584.14
892.8465,-2663.29
893.32092,-2570.15
893.79535,-2587.57
894.26978,-2551.07
894.7442,-2604.19
895.21863,-2750.03
895.69299,-2642.39
896.16742,-2680.47
896.64185,-2701.84
897.11627,-2583.31
897.5907,-2691.64
898.06512,-2599.86
898.53955,-2613.16
899.01398,-2586.8
899.48834,-2551.84
899.96277,-2530.4
900.43719,-2620.19
900.91162,-2722.01
901.38605,-2662.55
901.86047,-2615.25
902.3349,-2619.22
902.80933,-2563.26
903.28369,-2578.83
903.75812,-2547.42
904.23254,-2574.75
904.70697,-2691.47
905.1814,-2717.04
905.65582,-2663.44
906.13025,-2632.54
906.60468,-2564.79
907.07904,-2608.63
907.55347,-2651.27
908.02789,-2626.66
908.50232,-2636.83
908.97675,-2675.75
909.45117,-2679.15
909.9256,-2665.78
910.40002,-2593.16
910.87439,-2572.66
911.34882,-2689.42
911.82324,-2682.36
912.29767,-2624.14
912.77209,-2687.35
913.24652,-2471.7
913.72095,-2304.24
914.19537,-2276.74
914.66974,-1999.94
915.14417,-1853.97
915.61859,-1766.37
916.09302,-1770.84
916.56744,-2021.01
917.04187,-2292.3
917.5163,-2473.05
917.99072,-2541.49
918.46509,-2471.88
918.93951,-2539.54
919.41394,-2636.75
919.88837,-2667.06
920.36279,-2686.9
920.83722,-2687.63
921.31165,-2601
921.78607,-2592.17
922.26044,-2652.83
922.73486,-2665.91
923.20929,-2686.43
923.68372,-2529.76
924.15814,-2519.34
924.63257,-2457.4
925.10699,-2439.78
925.58142,-2475.26
926.05579,-2350.52
926.53021,-2459.72
927.00464,-2746.32
927.47906,-2729.75
927.95349,-2602.28
928.42792,-2575.13
928.90234,-2590.26
929.37677,-2515.41
929.85114,-2566.52
930.32556,-2943.6
930.79999,-2731.94
931.27441,-2531.01
931.74884,-2649.34
932.22327,-2656.86
932.69769,-2624.61
933.17212,-2666.83
933.64648,-2689.28
934.12091,-2655.19
934.59534,-2597.32
935.06976,-2813.22
935.54419,-2849.54
936.01862,-2592.65
936.49304,-2691.24
936.96747,-2744.94
937.44183,-2707.12
937.91626,-2674.02
938.39069,-2792.34
938.86511,-2654.12
939.33954,-2562.38
939.81396,-2598.74
940.28839,-2534.31
940.76282,-2503.3
941.23718,-2588.41
941.71161,-2671.6
942.18604,-2664.84
942.66046,-2627.78
943.13489,-2621.61
943.60931,-2458.02
944.08374,-2603.2
944.55817,-2721.84
945.03253,-2525.47
945.50696,-2492.97
945.98138,-2537.52
946.45581,-2604.82
946.93024,-2727.03
947.40466,-2657.7
947.87909,-2678.04
948.35352,-2823.28
948.82788,-2625.37
949.30231,-2477.86
949.77673,-2706.63
950.25116,-2606.12
950.72559,-2712.53
951.20001,-2780.74
951.67444,-2606.01
952.14886,-2613.75
952.62323,-2621.08
953.09766,-2617.98
953.57208,-2632.31
954.04651,-2664.51
954.52094,-2688.72
954.99536,-2681.46
955.46979,-2708.93
955.94421,-2566.78
956.41858,-2444.73
956.89301,-2617.19
957.36743,-2698.37
957.84186,-2725.71
958.31628,-2559.51
958.79071,-2709.5
959.26514,-2819.99
959.73956,-2569.59
960.21393,-2638.92
960.68835,-2805.15
961.16278,-2644.91
961.63721,-2667.85
962.11163,-2649.21
962.58606,-2544.07
963.06049,-2601.77
963.53491,-2613.63
964.00928,-2538.13
964.4837,-2611.34
964.95813,-2676.67
965.43256,-2635.92
965.90698,-2538.9
966.38141,-2623.44
966.85583,-2698.29
967.33026,-2567.51
967.80463,-2395.82
968.27905,-2378.41
968.75348,-2277.63
969.22791,-2303.49
969.70233,-2484.13
970.17676,-2434.43
970.65118,-2597.66
971.12561,-2547.7
971.59998,-2447.22
972.0744,-2709.61
972.54883,-2701.49
973.02325,-2526.4
973.49768,-2539.21
973.97211,-2566.23
974.44653,-2729.37
974.92096,-2702.44
975.39532,-2504.01
975.86975,-2734.53
976.34418,-2779.32
976.8186,-2538.52
977.29303,-2670.74
977.76746,-2533.57
978.24188,-2594.14
978.71631,-2619.45
979.19067,-2587.44
979.6651,-2716.78
980.13953,-2719.87
980.61395,-2628.48
981.08838,-2524.45
981.56281,-2517.8
982.03723,-2663.49
982.51166,-2775.82
982.98602,-2700.47
983.46045,-2536.74
983.93488,-2549.79
984.4093,-2620.67
984.88373,-2587.46
985.35815,-2915.77
985.83258,-2754.96
986.30701,-2652.16
986.78137,-2719.87
987.2558,-2738.57
987.73022,-2844.3
988.20465,-2754.48
988.67908,-2758.44
989.1535,-2633.4
989.62793,-2606.83
990.10229,-2693.85
990.57672,-2534.34
991.05115,-2499.43
991.52557,-2522.37
992,-2795.12
992.47443,-2642.44
992.94885,-2485.06
993.42328,-2739.46
993.89764,-2683.51
994.37207,-2586.64
994.8465,-2779.84
995.32092,-2738.57
995.79535,-2524.14
996.26978,-2599.74
996.7442,-2714.77
997.21863,-2501.73
997.69299,-2584.58
998.16742,-2893.93
998.64185,-2701.46
999.11627,-2731.4
999.5907,-2818.73
1000.0651,-2595.77
1000.5396,-2619.95
1001.014,-2690.02
1001.4883,-2759.04
1001.9628,-2664.17
1002.4372,-2510.41
1002.9116,-2539.99
1003.386,-2641.68
1003.8605,-2764.21
1004.3349,-2651.56
1004.8093,-2585
1005.2837,-2506.34
1005.7581,-2445.31
1006.2325,-2804.88
1006.707,-2801.8
1007.1814,-2486.6
1007.6558,-2581.07
1008.1302,-2814.22
1008.6047,-2740.49
1009.079,-2559.72
1009.5535,-2599
1010.0279,-2691.29
1010.5023,-2643.81
1010.9767,-2678.18
1011.4512,-2700.25
1011.9256,-2676.09
1012.4,-2851.25
1012.8744,-2829.6
1013.3488,-2621.11
1013.8232,-2690.04
1014.2977,-2716.42
1014.7721,-2695.22
1015.2465,-2534.33
1015.7209,-2183.52
1016.1954,-1919.42
1016.6697,-1852.35
1017.1442,-1766.52
1017.6186,-1647.05
1018.093,-1815.25
1018.5674,-2189.83
1019.0419,-2407
1019.5163,-2546.72
1019.9907,-2658.87
1020.4651,-2628.31
1020.9395,-2610.83
1021.4139,-2867.99
1021.8884,-2704.8
1022.3628,-2846.81
1022.8372,-2807.65
1023.3116,-2650.12
1023.7861,-2615.71
1024.2605,-2629.57
1024.7349,-2714.1
1025.2094,-2622.28
1025.6837,-2641.29
1026.1581,-2724.07
1026.6326,-2579.58
1027.1069,-2669.12
1027.5814,-2806.55
1028.0558,-2617.86
1028.5303,-2637.85
1029.0046,-2720.42
1029.4791,-2536.55
1029.9535,-2561.32
1030.4279,-2534.09
1030.9023,-2635.82
1031.3767,-2696.97
1031.8512,-2576.14
1032.3256,-2621.68
1032.8,-2615.07
1033.2744,-2617.36
1033.7488,-2677.82
1034.2233,-2830.41
1034.6976,-2675
1035.1721,-2722.19
1035.6465,-2702.64
1036.121,-2604.54
1036.5953,-2537.84
1037.0698,-2608.58
1037.5442,-2663.58
1038.0186,-2591.02
1038.493,-2552.07
1038.9674,-2561.32
1039.4419,-2701.27
1039.9163,-2696.81
1040.3907,-2611.37
1040.8651,-2634.02
1041.3395,-2746.24
1041.814,-2625.41
1042.2883,-2411.53
1042.7628,-2453.02
1043.2372,-2540.52
1043.7117,-2567.35
1044.186,-2610.22
1044.6605,-2630.65
1045.1349,-2633.99
1045.6093,-2638.88
1046.0837,-2633.71
1046.5581,-2766.06
1047.0326,-2787.59
1047.507,-2576.86
1047.9814,-2611.17
1048.4558,-2490.12
1048.9302,-2640.62
1049.4047,-2578.66
1049.879,-2656.37
1050.3535,-2711.62
1050.8279,-2611.27
1051.3024,-2713.78
1051.7767,-2832.37
1052.2512,-2736.37
1052.7256,-2702.42
1053.2,-2724.3
1053.6744,-2677.91
1054.1488,-2546.67
1054.6233,-2570.96
1055.0977,-2714.51
1055.5721,-2646.82
1056.0465,-2661.51
1056.5209,-2733.11
1056.9954,-2782.83
1057.4697,-2721.01
1057.9442,-2684.26
1058.4186,-2837.39
1058.8931,-2814.18
1059.3674,-2506.13
1059.8419,-2509.51
1060.3163,-2731.62
1060.7906,-2633.75
1061.2651,-2787.34
1061.7395,-2764.39
1062.214,-2637.52
1062.6884,-2610.43
1063.1628,-2650.63
1063.6372,-2558.05
1064.1116,-2685.91
1064.5861,-2697.91
1065.0604,-2863.22
1065.5349,-2840.96
1066.0093,-2653.67
1066.4838,-2669.29
1066.9581,-2775.01
1067.4326,-2859.17
1067.907,-2545.86
1068.3813,-2587.82
1068.8558,-2638.24
1069.3302,-2602.54
1069.8047,-2724.73
1070.2791,-2684.66
1070.7535,-2703.3
1071.2279,-2828.26
1071.7023,-2665.91
1072.1768,-2457.27
1072.6511,-2605.82
1073.1256,-2761.58
1073.6,-2724.17
1074.0745,-2634.68
1074.5488,-2608.4
1075.0233,-2700.17
1075.4977,-2627.33
1075.972,-2769.81
1076.4465,-2680.59
1076.9209,-2546.02
1077.3954,-2733.23
1077.8698,-2616.85
1078.3442,-2558.69
1078.8186,-2665.05
1079.293,-2558.35
1079.7675,-2697.95
1080.2418,-2742.09
1080.7163,-2646.03
1081.1907,-2753.44
1081.6652,-2711.26
1082.1395,-2613.98
1082.614,-2754.64
1083.0884,-2728.09
1083.5627,-2705.66
1084.0372,-2736.11
1084.5116,-2690.4
1084.9861,-2664.14
1085.4604,-2752.31
1085.9349,-2716.01
1086.4093,-2520.23
1086.8837,-2502.36
1087.3582,-2624.46
1087.8325,-2707.57
1088.307,-2700.64
1088.7814,-2655.99
1089.2559,-2644.41
1089.7302,-2562.73
1090.2047,-2667.45
1090.6791,-2660.93
1091.1534,-2735.25
1091.6279,-2649.03
1092.1023,-2565.98
1092.5768,-2581.14
1093.0511,-2657.52
1093.5256,-2642.77
1094,-2642.54
1094.4744,-2738.25
1094.9489,-2666.03
1095.4232,-2622.74
1095.8977,-2762.37
1096.3721,-2702.35
1096.8466,-2580.56
1097.3209,-2663.68
1097.7954,-2610.25
1098.2698,-2607.52
1098.7441,-2765.11
1099.2186,-2678.67
1099.693,-2658.28
1100.1675,-2600.43
1100.6418,-2546.37
1101.1163,-2680.22
1101.5907,-2688.66
1102.0651,-2672.71
1102.5396,-2639.44
1103.0139,-2571.82
1103.4884,-2623.47
1103.9628,-2587.86
1104.4373,-2599.27
1104.9116,-2680.41
1105.3861,-2675.23
1105.8605,-2618.25
1106.3348,-2607.25
1106.8093,-2731.73
1107.2837,-2717.86
1107.7582,-2538.13
1108.2325,-2548.59
1108.707,-2680.63
1109.1814,-2664.77
1109.6558,-2675.34
1110.1302,-2622
1110.6046,-2788.07
1111.0791,-2663.87
1111.5535,-2637.66
1112.028,-2611.85
1112.5023,-2656.95
1112.9767,-2664.98
1113.4512,-2591.14
1113.9255,-2618.25
1114.4,-2668.55
1114.8744,-2699.27
1115.3489,-2620.94
1115.8232,-2629.33
1116.2977,-2619.65
1116.7721,-2614.57
1117.2465,-2729.47
1117.7209,-2712.91
1118.1953,-2664.56
1118.6698,-2618.58
1119.1442,-2612.38
1119.6187,-2706.79
1120.093,-2677.41
1120.5674,-2571.42
1121.0419,-2613.26
1121.5162,-2564.16
1121.9907,-2533.47
1122.4651,-2557.58
1122.9396,-2548.09
1123.4139,-2605.96
1123.8884,-2621.9
1124.3628,-2565.73
1124.8372,-2673.71
1125.3116,-2643.76
1125.786,-2664.94
1126.2605,-2573.48
1126.7349,-2563.99
1127.2094,-2491.24
1127.6837,-2553.52
1128.1581,-2592.55
1128.6326,-2502
1129.1069,-2703.47
1129.5814,-2674.48
1130.0558,-2592.59
1130.5303,-2539.33
1131.0046,-2609.58
1131.4791,-2649.43
1131.9535,-2681.34
1132.4279,-2576.6
1132.9023,-2508.89
1133.3767,-2633.14
1133.8512,-2624.47
1134.3256,-2437.55
1134.8,-2611.03
1135.2744,-2764.99
1135.7488,-2714.53
1136.2233,-2668.09
1136.6976,-2513.78
1137.1721,-2550.18
1137.6465,-2545.04
1138.121,-2584.58
1138.5953,-2770.48
1139.0698,-2699.32
1139.5442,-2450.19
1140.0186,-2421.03
1140.493,-2611.07
1140.9674,-2550.11
1141.4419,-2504.44
1141.9163,-2696.27
1142.3907,-2584.41
1142.8651,-2554.33
1143.3395,-2638.09
1143.814,-2589.92
1144.2883,-2649.87
1144.7628,-2608.73
1145.2372,-2641.69
1145.7117,-2652.47
1146.186,-2682.71
1146.6605,-2671.84
1147.1349,-2521.31
1147.6093,-2554.13
1148.0837,-2472.81
1148.5581,-2522.54
1149.0326,-2553.13
1149.507,-2623.96
1149.9814,-2787.08
1150.4558,-2634.14
1150.9302,-2638.5
1151.4047,-2563.84
1151.879,-2253.68
1152.3535,-2587.95
1152.8279,-2746.79
1153.3024,-2571.95
1153.7767,-2688.91
1154.2512,-2707.66
1154.7256,-2587.57
1155.2,-2596.74
1155.6744,-2628.07
1156.1488,-2534.72
1156.6233,-2660.6
1157.0977,-2612.47
1157.5721,-2628.11
1158.0465,-2633.51
1158.5209,-2512.14
1158.9954,-2621.84
1159.4697,-2597.3
1159.9442,-2506.52
1160.4186,-2577.83
1160.8931,-2628.01
1161.3674,-2590.79
1161.8419,-2590.61
1162.3163,-2689.51
1162.7906,-2666.05
1163.2651,-2611.35
1163.7395,-2625.84
1164.214,-2587.93
1164.6884,-2572.83
1165.1628,-2561.57
1165.6372,-2579.16
1166.1116,-2610.99
1166.5861,-2581.84
1167.0604,-2603.99
1167.5349,-2611.68
1168.0093,-2624.55
1168.4838,-2770.32
1168.9581,-2750.27
1169.4326,-2536.52
1169.907,-2640.49
1170.3813,-2604.02
1170.8558,-2525.26
1171.3302,-2533.19
1171.8047,-2546.49
1172.2791,-2605.37
1172.7535,-2564.59
1173.2279,-2592.44
1173.7023,-2681.25
1174.1768,-2650.21
1174.6511,-2587.65
1175.1256,-2571.19
1175.6,-2482.3
1176.0745,-2641.04
1176.5488,-2594.51
1177.0233,-2652.31
1177.4977,-2714.5
1177.972,-2588.65
1178.4465,-2618.7
1178.9209,-2633.18
1179.3954,-2534.88
1179.8698,-2717.96
1180.3442,-2761.69
1180.8186,-2545.13
1181.293,-2616.87
1181.7675,-2584.02
1182.2418,-2641.45
1182.7163,-2721.63
1183.1907,-2656.18
1183.6652,-2662.48
1184.1395,-2596.58
1184.614,-2370.32
1185.0884,-2703.14
1185.5627,-2541.67
1186.0372,-2643.29
1186.5116,-2725.48
1186.9861,-2499.71
1187.4604,-2631.46
1187.9349,-2662.49
1188.4093,-2652.69
1188.8837,-2571.56
1189.3582,-2457.38
1189.8325,-2521.15
1190.307,-2658.07
1190.7814,-2524.72
1191.2559,-2524.6
1191.7302,-2606.26
1192.2047,-2550.21
1192.6791,-2560.64
1193.1534,-2795.65
1193.6279,-2747.77
1194.1023,-2574.77
1194.5768,-2657.71
1195.0511,-2623.97
1195.5256,-2497.64
1196,-2655.27
1196.4744,-2592.87
1196.9489,-2534.03
1197.4232,-2614.36
1197.8977,-2745.45
1198.3721,-2563.76
1198.8466,-2508.22
1199.3209,-2489.59
1199.7954,-2468.46
1200.2698,-2651.12
1200.7441,-2544.83
1201.2186,-2532.77
1201.693,-2712.32
1202.1675,-2663.95
1202.6418,-2635.84
1203.1163,-2704.73
1203.5907,-2540.89
1204.0651,-2615.52
1204.5396,-2817.97
1205.0139,-2651.2
1205.4884,-2533.38
1205.9628,-2675.72
1206.4373,-2785.93
1206.9116,-2683.12
1207.3861,-2731.26
1207.8605,-2592.37
1208.3348,-2515.6
1208.8093,-2644.04
1209.2837,-2720.13
1209.7582,-2721.69
1210.2325,-2560.13
1210.707,-2516.37
1211.1814,-2690.52
1211.6558,-2797.92
1212.1302,-2710.86
1212.6046,-2622.58
1213.0791,-2672.02
1213.5535,-2407.77
1214.028,-2578.64
1214.5023,-2804.15
1214.9768,-2580.23
1215.4512,-2535.81
1215.9255,-2877.68
1216.4,-2776.31
1216.8744,-2402.62
1217.3489,-2466.69
1217.8232,-2644.04
1218.2977,-2685.26
1218.7721,-2664.49
1219.2465,-2635.2
1219.7209,-2523.17
1220.1953,-2648.29
1220.6698,-2902.67
1221.1442,-2821.61
1221.6187,-2635.28
1222.093,-2781.74
1222.5675,-2840.41
1223.0419,-2768.93
1223.5162,-2674.8
1223.9907,-2533.05
1224.4651,-2686.38
1224.9396,-2718.96
1225.4139,-2617.03
1225.8884,-2626.65
1226.3628,-2696.88
1226.8372,-2598.58
1227.3116,-2587.91
1227.786,-2604.69
1228.2605,-2736.76
1228.7349,-2524.92
1229.2094,-2621.3
1229.6837,-2673.66
1230.1581,-2636.62
1230.6326,-2770.15
1231.1069,-2813.07
1231.5814,-2708.94
1232.0558,-2605.23
1232.5303,-2627.41
1233.0046,-2626.08
1233.4791,-2648.69
1233.9535,-2615.52
1234.4279,-2635.26
1234.9023,-2639.95
1235.3767,-2620.08
1235.8512,-2566.84
1236.3256,-2764.01
1236.8,-2527.15
1237.2744,-2471.24
1237.7488,-2686.1
1238.2233,-2637.52
1238.6976,-2581.03
1239.1721,-2639.71
1239.6465,-2620.89
1240.121,-2640.21
1240.5953,-2652.74
1241.0698,-2680.98
1241.5442,-2628.48
1242.0186,-2671.43
1242.493,-2698.66
1242.9674,-2748.98
1243.4419,-2559.64
1243.9163,-2731.68
1244.3907,-2625.72
1244.8651,-2620.22
1245.3395,-2648.05
1245.814,-2609.05
1246.2883,-2617.04
1246.7628,-2548.26
1247.2372,-2599.16
1247.7117,-2534.3
1248.186,-2558.35
1248.6605,-2477.2
1249.1349,-2599.63
1249.6093,-2623.17
1250.0837,-2423.96
1250.5581,-2500.22
1251.0326,-2614.84
1251.507,-2608.54
1251.9814,-2579.89
1252.4558,-2522.4
1252.9302,-2705.53
1253.4047,-2798.21
1253.879,-2593.67
1254.3535,-2709.03
1254.8279,-2905.34
1255.3024,-2552.76
1255.7767,-2653.83
1256.2512,-2599.91
1256.7256,-2590.63
1257.2,-2586.91
1257.6744,-2684
1258.1488,-2667.39
1258.6233,-2534.52
1259.0977,-2654.35
1259.5721,-2616.5
1260.0465,-2545.22
1260.5209,-2564.07
1260.9954,-2644.39
1261.4697,-2691.3
1261.9442,-2570.47
1262.4186,-2544.7
1262.8931,-2586.07
1263.3674,-2502.05
1263.8419,-2629.73
1264.3163,-2756.1
1264.7906,-2674.36
1265.2651,-2591.56
1265.7395,-2718.3
1266.214,-2793.69
1266.6884,-2666.16
1267.1628,-2572.99
1267.6372,-2547.53
1268.1116,-2606.76
1268.5861,-2752.81
1269.0604,-2796.79
1269.5349,-2639.01
1270.0093,-2578.28
1270.4838,-2752.44
1270.9581,-2683.99
1271.4326,-2629.95
1271.907,-2619.71
1272.3813,-2646.75
1272.8558,-2760.5
1273.3302,-2705.15
1273.8047,-2659.88
1274.2791,-2708.72
1274.7535,-2706.57
1275.2279,-2655.27
1275.7023,-2541.84
1276.1768,-2595.77
1276.6511,-2651.01
1277.1256,-2711.1
1277.6,-2754.2
1278.0745,-2547.18
1278.5488,-2615.9
1279.0233,-2770.34
1279.4977,-2610.72
1279.972,-2483.79
1280.4465,-2642.93
1280.9209,-2687.06
1281.3954,-2590.02
1281.8698,-2580.01
1282.3442,-2654.51
1282.8186,-2642.54
1283.293,-2690.94
1283.7675,-2851.84
1284.2418,-2580.76
1284.7163,-2555.86
1285.1907,-2755.15
1285.6652,-2515.71
1286.1395,-2684.46
1286.614,-2704.96
1287.0884,-2548.64
1287.5627,-2869.94
1288.0372,-2732.49
1288.5116,-2758.73
1288.9861,-2693.72
1289.4604,-2553.96
1289.9349,-2582.27
1290.4093,-2611.62
1290.8837,-2737.61
1291.3582,-2645.75
1291.8325,-2581.43
1292.307,-2708.03
1292.7814,-2725.98
1293.2559,-2792.39
1293.7302,-2854.35
1294.2047,-2571.84
1294.6791,-2514.47
1295.1534,-2565.17
1295.6279,-2652.26
1296.1023,-2695.37
1296.5768,-2613.69
1297.0511,-2541.16
1297.5256,-2670.19
1298,-2700.01
1298.4744,-2635.79
1298.9489,-2662.57
1299.4232,-2455.06
1299.8977,-2562.75
1300.3721,-2681.85
1300.8466,-2748
1301.3209,-2567.24
1301.7954,-2525.95
1302.2698,-2619.88
1302.7441,-2575.83
1303.2186,-2557.16
1303.693,-2719.07
1304.1675,-2579.28
1304.6418,-2537.99
1305.1163,-2557.54
1305.5907,-2570.48
1306.0651,-2786.38
1306.5396,-2644.3
1307.0139,-2425.41
1307.4884,-2668.74
1307.9628,-2642.97
1308.4373,-2587.61
1308.9116,-2678.8
1309.3861,-2606.87
1309.8605,-2666.57
1310.3348,-2592.92
1310.8093,-2699.97
1311.2837,-2754.25
1311.7582,-2680.69
1312.2325,-2711.5
1312.707,-2678.97
1313.1814,-2624.58
1313.6558,-2615.04
1314.1302,-2667.17
1314.6046,-2648.88
1315.0791,-2559.04
1315.5535,-2600.02
1316.028,-2628.05
1316.5023,-2713.03
1316.9768,-2724.73
1317.4512,-2667.26
1317.9255,-2721.45
1318.4,-2643.9
1318.8744,-2685.39
1319.3489,-2631.46
1319.8232,-2601.93
1320.2977,-2671.28
1320.7721,-2647.71
1321.2465,-2699.67
1321.7209,-2636.93
1322.1953,-2717.41
1322.6698,-2530.13
1323.1442,-2615.55
1323.6187,-2754.09
1324.093,-2704.1
1324.5675,-2701.86
1325.0419,-2682.14
1325.5162,-2698.16
1325.9907,-2674.33
1326.4651,-2643.41
1326.9396,-2734.37
1327.4139,-2747.12
1327.8884,-2653.23
1328.3628,-2588.56
1328.8372,-2602.72
1329.3116,-2637.6
1329.786,-2682.43
1330.2605,-2660.61
1330.7349,-2617.38
1331.2094,-2773.09
1331.6837,-2589.46
1332.1582,-2735.93
1332.6326,-2713.79
1333.1069,-2757.08
1333.5814,-2688.84
1334.0558,-2557.55
1334.5303,-2607.58
1335.0046,-2789.92
1335.4791,-2773.54
1335.9535,-2683.24
1336.4279,-2676.11
1336.9023,-2644.61
1337.3767,-2677.05
1337.8512,-2531.02
1338.3256,-2657.16
1338.8,-2736.71
1339.2744,-2600.03
1339.7489,-2778.52
1340.2233,-2643.39
1340.6976,-2660.79
1341.1721,-2585
1341.6465,-2693.99
1342.121,-2733.38
1342.5953,-2744.63
1343.0698,-2706.61
1343.5442,-2606.3
1344.0186,-2678.66
1344.493,-2641.55
1344.9674,-2641.48
1345.4419,-2600.65
1345.9163,-2927.13
1346.3907,-2756.11
1346.8651,-2686.19
1347.3396,-2661.55
1347.814,-2696.34
1348.2883,-2614.89
1348.7628,-2560.5
1349.2372,-2705.21
1349.7117,-2636.9
1350.186,-2612.73
1350.6605,-2785.15
1351.1349,-2725.52
1351.6093,-2686.4
1352.0837,-2779.07
1352.5581,-2621.3
1353.0326,-2600.85
1353.507,-2745.86
1353.9814,-2895.78
1354.4558,-2572.24
1354.9302,-2716.14
1355.4047,-2670.2
1355.879,-2684.34
1356.3535,-2596.03
1356.8279,-2703.35
1357.3024,-2848.41
1357.7767,-2751.53
1358.2512,-2764.04
1358.7256,-2542.99
1359.2,-2367.19
1359.6744,-2673.21
1360.1488,-2647.73
1360.6233,-2609.65
1361.0977,-2629.06
1361.5721,-2669.13
1362.0465,-2834.62
1362.5209,-2829.43
1362.9954,-2600.98
1363.4697,-2781.81
1363.9442,-2827.11
1364.4186,-2547.68
1364.8931,-2761.7
1365.3674,-2810.95
1365.8419,-2750.74
1366.3163,-2793.18
1366.7906,-2727.47
1367.2651,-2731.83
1367.7395,-2711.04
1368.214,-2657.04
1368.6884,-2649.99
1369.1628,-2778.53
1369.6372,-2682.23
1370.1116,-2672.07
1370.5861,-2692.2
1371.0604,-2854.3
1371.5349,-2591.25
1372.0093,-2682.76
1372.4838,-2762.82
1372.9581,-2747.09
1373.4326,-2591.37
1373.907,-2596.69
1374.3813,-2681.05
1374.8558,-2602.68
1375.3302,-2749.38
1375.8047,-2810.45
1376.2791,-2620.25
1376.7535,-2704.33
1377.2279,-2724.84
1377.7023,-2639.04
1378.1768,-2739.86
1378.6511,-2684.83
1379.1256,-2658.74
1379.6,-2719.03
1380.0745,-2655.69
1380.5488,-2668.37
1381.0233,-2684.69
1381.4977,-2705.74
1381.972,-2805.42
1382.4465,-2814.29
1382.9209,-2702.89
1383.3954,-2682.18
1383.8698,-2661.65
1384.3442,-2556.66
1384.8186,-2778.34
1385.293,-2673.94
1385.7675,-2680.6
1386.2418,-2630.3
1386.7163,-2561.98
1387.1907,-2808.28
1387.6652,-2809.71
1388.1395,-2606.19
1388.614,-2544.09
1389.0884,-2766.83
1389.5627,-2884.86
1390.0372,-2785.47
1390.5116,-2793.29
1390.9861,-2824.75
1391.4604,-2594.41
1391.9349,-2456.18
1392.4093,-2768.29
1392.8837,-2602.35
1393.3582,-2736.06
1393.8325,-2590.03
1394.307,-2675.5
1394.7814,-2754.16
1395.2559,-2796.64
1395.7302,-2692.75
1396.2047,-2630.74
1396.6791,-2572.83
1397.1534,-2741.32
1397.6279,-2739.38
1398.1023,-2570.84
1398.5768,-2694.7
1399.0511,-2726.81
1399.5256,-2642.04
1400,-2701.37
