Date and Time:                Mon Jan 17 22:08:16.000 2022
Software Version:             4.31.30023.0
Temperature (C):              -50
Model:                        DU420_BVF
Data Type:                    Counts (Bg Corrected)
Acquisition Mode:             Accumulate
Trigger Mode:                 Internal
Exposure Time (secs):         0.09999
Accumulate Cycle Time (secs): 0.09999
Frequency (Hz):               10.001
Number of Accumulations:      1000
Readout Mode:                 Full Vertical Binning
Horizontal binning:           1
Extended Dynamic Range:       off
Horizontally flipped:         false
Vertical Shift Speed (usecs): 8.25
Pixel Readout Time (usecs):   30.303
Serial Number:                22942
Pre-Amplifier Gain:           1.000000
Spurious Noise Filter Mode:   No Filter
Photon counted:               false
Data Averaging Filter Mode:   No Filter
KY328i:
Serial Number:                
Wavelength (nm):              889.526
Grating Groove Density (l/mm):150.012
Grating Blaze:                500nm
Output Flipper Port:          Direct
Filter:                       6-785 LP



380,-2203.46
380.4744,-2137.22
380.94882,-2172.06
381.42325,-2125.79
381.89767,-1919.51
382.37207,-1863.63
382.8465,-1765.8
383.32092,-1581.01
383.79535,-1648.58
384.26974,-1442.65
384.74417,-969.973
385.2186,-861.79
385.69302,-661.896
386.16742,-386.921
386.64185,-317.848
387.11627,224.699
387.5907,435.175
388.06509,508.615
388.53952,1068.2
389.01395,1439.21
389.48837,1579.54
389.96277,1847.05
390.43719,2175.19
390.91162,2371.13
391.38605,2420.19
391.86044,2681.89
392.33487,2715.61
392.8093,2687.41
393.28372,2872
393.75812,3002.52
394.23254,3085.49
394.70697,3371.53
395.1814,3263.23
395.65579,3091.05
396.13022,3138.21
396.60464,3322.19
397.07907,3367.86
397.55347,3252.18
398.02789,3531.02
398.50232,3451.29
398.97675,3309.21
399.45114,3368.15
399.92557,3095.87
400.39999,3037.65
400.87442,3123.8
401.34882,2955.62
401.82324,2850.75
402.29767,2754.02
402.77209,2733.03
403.24649,2670.05
403.72092,2613.03
404.19534,2569.25
404.66977,2321.61
405.14417,2678.03
405.61859,2920.91
406.09302,4486.01
406.56744,10989
407.04184,108837
407.51627,474229
407.99069,1.09738e+06
408.46512,1.71689e+06
408.93951,2.11196e+06
409.41394,2.24689e+06
409.88837,2.18533e+06
410.36279,1.8268e+06
410.83719,1.14512e+06
411.31161,509440
411.78604,164585
412.26047,41355.9
412.73486,10914.3
413.20929,4279.78
413.68372,2109.67
414.15814,979.482
414.63254,114.57
415.10696,-640.452
415.58139,-1162.4
416.05582,-1268.31
416.53021,-1407.63
417.00464,-1765.37
417.47906,-1957.8
417.95349,-1968.81
418.42789,-1954.48
418.90231,-1907.54
419.37674,-1888.99
419.85117,-1892.8
420.32556,-1933.3
420.79999,-1870.91
421.27441,-1915.16
421.74884,-2080.24
422.22324,-1976.11
422.69766,-2037.04
423.17209,-2093
423.64651,-2055.97
424.12091,-2070.27
424.59534,-2017.05
425.06976,-2028.99
425.54419,-2096.88
426.01859,-2005.33
426.49301,-1965.15
426.96744,-2020.21
427.44186,-1958.01
427.91626,-1918.07
428.39069,-2020.61
428.86511,-2114.72
429.33954,-2150.32
429.81393,-2124.03
430.28836,-2109.95
430.76279,-2159.18
431.23721,-1993.7
431.71161,-2118.19
432.18604,-2207.24
432.66046,-2119.02
433.13489,-2213.81
433.60928,-2069.61
434.08371,-2182.04
434.55814,-2011.27
435.03256,-1978.38
435.50696,-2102.75
435.98138,-1959.74
436.45581,-1925.87
436.93024,-2155.59
437.40463,-2059.91
437.87906,-1932.55
438.35349,-1962.57
438.82791,-1975.77
439.30231,-2010.49
439.77673,-1956.37
440.25116,-1816.87
440.72559,-1854.13
441.19998,-1832.09
441.67441,-2016.86
442.14883,-1936.53
442.62326,-1770.71
443.09766,-2000.01
443.57208,-2092.89
444.04651,-1809.51
444.52094,-1793.8
444.99533,-1947.21
445.46976,-1889.76
445.94418,-1809.83
446.41861,-1909.66
446.89301,-1975.52
447.36743,-1838.19
447.84186,-2016.89
448.31628,-1989.15
448.79068,-1582.66
449.26511,-1765.65
449.73953,-1892.77
450.21396,-1674.84
450.68835,-1727.12
451.16278,-1650.01
451.63721,-1790.47
452.11163,-1964.75
452.58603,-1867.18
453.06046,-1873.69
453.53488,-1783.39
454.00931,-1840.21
454.4837,-1887.81
454.95813,-1749.93
455.43256,-1687.88
455.90698,-1694.71
456.38138,-1617.85
456.8558,-1616.71
457.33023,-1760.6
457.80466,-1654.84
458.27905,-1508.04
458.75348,-1768.35
459.22791,-1609.25
459.70233,-1575.01
460.17673,-1566.59
460.65115,-1564.71
461.12558,-1681.66
461.60001,-1526.89
462.0744,-1608.06
462.54883,-1726.08
463.02325,-1627.73
463.49768,-1599.01
463.97208,-1499.03
464.4465,-1410.07
464.92093,-1592.41
465.39536,-1580.6
465.86975,-1422.3
466.34418,-1472.17
466.8186,-1430.9
467.29303,-1320.8
467.76743,-1358.74
468.24185,-1432.14
468.71628,-1339.44
469.1907,-1340.85
469.6651,-1367.14
470.13953,-1191.65
470.61395,-1250.59
471.08838,-1350.49
471.56277,-1123.98
472.0372,-1231.68
472.51163,-1307.48
472.98605,-1192.6
473.46045,-1138.14
473.93488,-1125.14
474.4093,-1108.23
474.88373,-1088.32
475.35812,-1036.4
475.83255,-1128.89
476.30698,-1184.49
476.7814,-999.931
477.2558,-993.608
477.73022,-957.433
478.20465,-1006.31
478.67908,-960.034
479.15347,-939.434
479.6279,-980.662
480.10233,-799.276
480.57675,-732.919
481.05115,-735.15
481.52557,-801.676
482,-790.261
482.47443,-654.767
482.94882,-749.491
483.42325,-561.964
483.89767,-434.775
484.3721,-389.815
484.8465,-427.891
485.32092,-371.05
485.79535,-271.825
486.26978,-312.869
486.74417,-210.097
487.2186,-45.6424
487.69302,14.1658
488.16745,77.1996
488.64185,72.5603
489.11627,111.27
489.5907,109.58
490.06512,225.218
490.53952,296.524
491.01395,410.799
491.48837,556.705
491.9628,490.671
492.43719,477.739
492.91162,617.984
493.38605,634.629
493.86047,790.785
494.33487,935.617
494.8093,905.092
495.28372,1025.37
495.75815,1099.82
496.23254,1086.56
496.70697,1138.98
497.1814,1224.99
497.65582,1216.55
498.13022,1309.05
498.60464,1306.05
499.07907,1348.52
499.5535,1675.94
500.02789,1814.42
500.50232,1612.14
500.97675,1660.03
501.45114,1689.07
501.92557,1713.23
502.39999,1909.77
502.87442,1921.5
503.34882,1867.26
503.82324,2021.63
504.29767,2135.43
504.77209,2132.77
505.24649,2221.25
505.72092,2340.18
506.19534,2187.82
506.66977,2198.91
507.14417,2499.11
507.61859,2298.36
508.09302,2286.91
508.56744,2562.51
509.04184,2601.29
509.51627,2478.16
509.99069,2472.91
510.46512,2642.84
510.93951,2642.23
511.41394,2606.77
511.88837,2801.82
512.36279,2818.24
512.83722,2791.51
513.31165,2742.47
513.78601,2837.12
514.26044,2891.48
514.73486,2855.36
515.20929,3063.46
515.68372,3028.63
516.15814,2821.99
516.63257,2985.13
517.10699,3097.06
517.58136,3029.83
518.05579,2896.9
518.53021,2939.85
519.00464,2846.87
519.47906,2783.49
519.95349,2995.04
520.42792,3071.61
520.90234,3041.11
521.37671,3159.95
521.85114,3150.96
522.32556,2947.12
522.79999,2958.01
523.27441,3139.35
523.74884,2999.42
524.22327,2989.83
524.69769,3450.47
525.17206,2949.88
525.64648,2984.94
526.12091,3158.74
526.59534,3063.59
527.06976,3075.31
527.54419,3108.97
528.01862,2952.13
528.49304,3067.11
528.96741,3073.46
529.44183,2813.22
529.91626,3036.5
530.39069,3123.11
530.86511,2875
531.33954,3040.55
531.81396,3231.05
532.28839,3123.89
532.76276,3171.63
533.23718,3037.65
533.71161,2905.14
534.18604,2834.89
534.66046,2838.64
535.13489,2926.29
535.60931,2981.93
536.08374,3115.01
536.55811,2879.39
537.03253,2877.31
537.50696,2931.66
537.98138,2967.03
538.45581,2950.2
538.93024,2779.38
539.40466,2769.53
539.87909,2808.77
540.35345,2637.65
540.82788,2714.38
541.30231,2754.96
541.77673,2531.01
542.25116,2669.88
542.72559,2813.09
543.20001,2799.1
543.67444,2751.33
544.1488,2699.62
544.62323,3042.06
545.09766,2915.83
545.57208,2808.7
546.04651,2826.2
546.52094,2808.79
546.99536,2905.35
547.46979,2843.89
547.94415,2663.21
548.41858,2673.66
548.89301,2794.85
549.36743,2592.17
549.84186,2501.04
550.31628,2367.18
550.79071,2433.42
551.26514,2358.24
551.7395,2346.14
552.21393,2381.53
552.68835,2341.68
553.16278,2189.46
553.63721,2105.16
554.11163,2198.29
554.58606,2207.44
555.06049,2235.94
555.53485,2228.15
556.00928,2196.36
556.4837,2157.27
556.95813,2009.46
557.43256,2028.22
557.90698,2364.14
558.38141,1985.38
558.85583,1975.08
559.3302,2139.7
559.80463,2026.76
560.27905,2203.88
560.75348,2031.21
561.22791,1922.39
561.70233,2047.94
562.17676,1923.04
562.65118,2049.25
563.12555,2212.29
563.59998,2027.59
564.0744,1889.8
564.54883,1983.99
565.02325,2070.47
565.49768,2061.02
565.97211,2090.1
566.44653,2046.73
566.9209,1964.74
567.39532,1975.51
567.86975,1940.51
568.34418,1996.02
568.8186,1964.65
569.29303,2005.16
569.76746,1982.67
570.24188,2040.08
570.71625,2183.1
571.19067,2122.33
571.6651,2098.79
572.13953,2152.57
572.61395,2195.94
573.08838,2213.25
573.56281,2059.53
574.03723,2080.06
574.5116,2239.74
574.98602,1976.53
575.46045,2059.16
575.93488,2184.97
576.4093,2019.52
576.88373,1998.07
577.35815,2025.72
577.83258,2052.78
578.30695,2081.24
578.78137,2153.07
579.2558,2240.53
579.73022,2066.97
580.20465,2177.85
580.67908,2346.63
581.1535,2180.8
581.62793,2131.96
582.10229,2082.8
582.57672,2202.17
583.05115,2163.63
583.52557,2261.84
584,2330.61
584.47443,2258.54
584.94885,2144.63
585.42328,2088.44
585.89764,2258.68
586.37207,2317.95
586.8465,2327.95
587.32092,2475.03
587.79535,2394.41
588.26978,2383.5
588.7442,2462.87
589.21863,2472.48
589.69299,2295.5
590.16742,2214.01
590.64185,2496.11
591.11627,2408.58
591.5907,2316.89
592.06512,2376.36
592.53955,2177.21
593.01398,2337.66
593.48834,2297.78
593.96277,2096.19
594.43719,2121.06
594.91162,2212.21
595.38605,2188.88
595.86047,1980.66
596.3349,1892.31
596.80933,1839.38
597.28369,2002.85
597.75812,2161.62
598.23254,2074.48
598.70697,1949.93
599.1814,1959.37
599.65582,2151.41
600.13025,1925.97
600.60468,1855.24
601.07904,2062.98
601.55347,1875.85
602.02789,1664.99
602.50232,1782.89
602.97675,1699.23
603.45117,1585.63
603.9256,1660.78
604.40002,1554.15
604.87439,1556.9
605.34882,1649.04
605.82324,1672.96
606.29767,1498.31
606.77209,1277.03
607.24652,1358.15
607.72095,1348.73
608.19537,1290.88
608.66974,1301.32
609.14417,1201.76
609.61859,1265.56
610.09302,1255.63
610.56744,1126.04
611.04187,1265.44
611.5163,1267.94
611.99072,1204.78
612.46509,1157.52
612.93951,1293.27
613.41394,1337.24
613.88837,1180.26
614.36279,1211.22
614.83722,1134.93
615.31165,1007.73
615.78607,842.577
616.26044,821.072
616.73486,862.411
617.20929,715.23
617.68372,645.7
618.15814,698.34
618.63257,657.601
619.10699,624.868
619.58142,657.049
620.05579,641.941
620.53021,558.846
621.00464,474.912
621.47906,616.86
621.95349,559.937
622.42792,542.379
622.90234,569.706
623.37671,400.571
623.85114,347.575
624.32556,369.42
624.79999,418.375
625.27441,301.698
625.74884,285.597
626.22327,306.584
626.69769,247.444
627.17206,-45.3537
627.64648,4.58529
628.12091,81.8922
628.59534,-153.715
629.06976,-53.6016
629.54419,120.474
630.01862,93.6404
630.49304,131.534
630.96741,100.803
631.44183,45.7303
631.91626,-185.002
632.39069,-157.799
632.86511,-22.3026
633.33954,-255.372
633.81396,-359.096
634.28839,-248.884
634.76276,-250.001
635.23718,-272.318
635.71161,-200.649
636.18604,-206.714
636.66046,-282.225
637.13489,-272.646
637.60931,-214.309
638.08374,-286.661
638.55811,-510.465
639.03253,-591.067
639.50696,-526.344
639.98138,-606.155
640.45581,-515.229
640.93024,-462.121
641.40466,-403.185
641.87909,-483.751
642.35345,-621.659
642.82788,-673.345
643.30231,-813.099
643.77673,-619.837
644.25116,-720.475
644.72559,-783.856
645.20001,-629.845
645.67444,-585.874
646.1488,-537.698
646.62323,-558.147
647.09766,-747.267
647.57208,-769.446
648.04651,-757.983
648.52094,-760.206
648.99536,-831.371
649.46979,-835.369
649.94415,-648.886
650.41858,-749.089
650.89301,-811.712
651.36743,-874.327
651.84186,-1122.41
652.31628,-938.629
652.79071,-851.144
653.26514,-1016.26
653.7395,-957.599
654.21393,-786.222
654.68835,-886.741
655.16278,-1032.63
655.63721,-983.624
656.11163,-983.673
656.58606,-1015.88
657.06049,-1168.4
657.53485,-1174.13
658.00928,-1185.63
658.4837,-1353.09
658.95813,-1058.4
659.43256,-1185.98
659.90698,-1273.34
660.38141,-1090.35
660.85583,-1188.82
661.3302,-1208.47
661.80463,-1222.23
662.27905,-1405.77
662.75348,-1329.88
663.22791,-1457.95
663.70233,-1206.17
664.17676,-1056.91
664.65118,-1302.08
665.12555,-1343.29
665.59998,-1324.96
666.0744,-1355.69
666.54883,-1281.83
667.02325,-1278.04
667.49768,-1478.01
667.97211,-1521.62
668.44653,-1299.39
668.9209,-1334.44
669.39532,-1409.99
669.86975,-1268.73
670.34418,-1293.97
670.8186,-1318.95
671.29303,-1379.9
671.76746,-1312.75
672.24188,-1459.36
672.71625,-1484.27
673.19067,-1433.75
673.6651,-1578.52
674.13953,-1470.86
674.61395,-1536.69
675.08838,-1674.3
675.56281,-1613.12
676.03723,-1543.92
676.5116,-1606.85
676.98602,-1587.89
677.46045,-1611.29
677.93488,-1637.11
678.4093,-1671.99
678.88373,-1584.96
679.35815,-1525.01
679.83258,-1564.83
680.30695,-1624.57
680.78137,-1797.61
681.2558,-1630.3
681.73022,-1503.64
682.20465,-1689.66
682.67908,-1655.98
683.1535,-1691.35
683.62793,-1703.83
684.10229,-1616.79
684.57672,-1686.66
685.05115,-1589.82
685.52557,-1591.59
686,-1727.37
686.47443,-1740.14
686.94885,-1689.72
687.42328,-1689.62
687.89764,-1661.07
688.37207,-1749.95
688.8465,-1691.69
689.32092,-1660.04
689.79535,-1630.4
690.26978,-1614.49
690.7442,-1614.68
691.21863,-1760.07
691.69299,-1879.11
692.16742,-1848.02
692.64185,-1736.65
693.11627,-1715.23
693.5907,-1718.52
694.06512,-1742.95
694.53955,-1702.75
695.01398,-1646.9
695.48834,-1776.56
695.96277,-1866.14
696.43719,-1791.48
696.91162,-1775.41
697.38605,-1764.58
697.86047,-1673.19
698.3349,-1707.11
698.80933,-1856.12
699.28369,-1891.56
699.75812,-1832.96
700.23254,-1831.91
700.70697,-1920.92
701.1814,-1786.03
701.65582,-1782.26
702.13025,-1869.86
702.60468,-1937.49
703.07904,-1839.17
703.55347,-1887.73
704.02789,-1907.71
704.50232,-1724.25
704.97675,-1863.46
705.45117,-1871.78
705.9256,-1882.15
706.40002,-1871.66
706.87439,-1794.79
707.34882,-1894.16
707.82324,-1878.53
708.29767,-1963.74
708.77209,-1953.64
709.24652,-1840
709.72095,-1840.69
710.19537,-1879.03
710.66974,-1930.3
711.14417,-1885.38
711.61859,-1913.88
712.09302,-1908.38
712.56744,-1933.96
713.04187,-1966.68
713.5163,-1768.44
713.99072,-1868.9
714.46509,-1917.33
714.93951,-1823.95
715.41394,-1887.51
715.88837,-1943.56
716.36279,-1996
716.83722,-1898.35
717.31165,-1848.7
717.78607,-2013.89
718.26044,-2090.69
718.73486,-1925.54
719.20929,-2017.05
719.68372,-2054.6
720.15814,-1933.17
720.63257,-1910.45
721.10699,-2062.36
721.58142,-2056.5
722.05579,-1917.83
722.53021,-1990.77
723.00464,-2074.64
723.47906,-1996.46
723.95349,-1970.74
724.42792,-1977.52
724.90234,-2033.04
725.37677,-2114.38
725.85114,-2059.56
726.32556,-2118.81
726.79999,-2044.59
727.27441,-1957.47
727.74884,-2082.28
728.22327,-2145.29
728.69769,-2046.3
729.17212,-2201.14
729.64648,-2195.51
730.12091,-1931.82
730.59534,-2089.04
731.06976,-1997.87
731.54419,-1970.77
732.01862,-2020.55
732.49304,-2089.41
732.96747,-2040.33
733.44183,-2041.8
733.91626,-2161.11
734.39069,-1788.58
734.86511,-1762.99
735.33954,-2081.31
735.81396,-2125.61
736.28839,-2019.49
736.76282,-2006.89
737.23718,-2097.13
737.71161,-2159.65
738.18604,-2163.71
738.66046,-2083.12
739.13489,-2138.74
739.60931,-2235.63
740.08374,-2036.22
740.55817,-2112.57
741.03253,-2127.28
741.50696,-2144.9
741.98138,-2240.25
742.45581,-2204.79
742.93024,-2200.17
743.40466,-2107.57
743.87909,-2135.65
744.35345,-2228.77
744.82788,-2083.4
745.30231,-2149.07
745.77673,-2201.13
746.25116,-2192.65
746.72559,-2141.28
747.20001,-2144.13
747.67444,-2217.68
748.1488,-2161.74
748.62323,-2077.32
749.09766,-2074.81
749.57208,-2054.24
750.04651,-2193.13
750.52094,-2175.39
750.99536,-2088.28
751.46979,-2295.49
751.94415,-2205.31
752.41858,-2045.67
752.89301,-2195.19
753.36743,-2088.22
753.84186,-2129.84
754.31628,-2093.27
754.79071,-1998.18
755.26514,-2071.46
755.7395,-2118.88
756.21393,-2182.22
756.68835,-2189.91
757.16278,-2102.75
757.63721,-2224.55
758.11163,-2295.99
758.58606,-2149.73
759.06049,-2192.91
759.53485,-2314.67
760.00928,-2271.87
760.4837,-2184.48
760.95813,-2163.71
761.43256,-2259.76
761.90698,-2225.45
762.38141,-2169.64
762.85583,-2285.56
763.3302,-2296.15
763.80463,-2153.62
764.27905,-2077.62
764.75348,-2163.48
765.22791,-2231.78
765.70233,-2257.07
766.17676,-2119.25
766.65118,-2063.12
767.12555,-2097.83
767.59998,-1813.99
768.0744,-2029.85
768.54883,-2070.72
769.02325,-2092.28
769.49768,-2164.48
769.97211,-1945.86
770.44653,-2211.11
770.9209,-2432.14
771.39532,-2281.19
771.86975,-2278.45
772.34418,-2169.55
772.8186,-2084.36
773.29303,-2170.74
773.76746,-2191.09
774.24188,-2039.1
774.71625,-2042.59
775.19067,-2170.64
775.6651,-2042.07
776.13953,-2070.04
776.61395,-2156.63
777.08838,-2126.02
777.56281,-2292.03
778.03723,-2284.83
778.5116,-2259.48
778.98602,-2173.68
779.46045,-2237.69
779.93488,-2189.76
780.4093,-2192.21
780.88373,-2339.36
781.35815,-2243.36
781.83258,-2137.78
782.30695,-2205.35
782.78137,-2145.48
783.2558,-2194.33
783.73022,-2187.54
784.20465,-2170.38
784.67908,-2286.35
785.1535,-2280.03
785.62793,-2301.18
786.10229,-2268.58
786.57672,-2314.05
787.05115,-2197.51
787.52557,-2232.84
788,-2346.46
788.47443,-2263.8
788.94885,-2219.51
789.42328,-2365.45
789.89764,-2348.74
790.37207,-2258.3
790.8465,-2357.66
791.32092,-2193.83
791.79535,-2340.35
792.26978,-2305.01
792.7442,-2402.99
793.21863,-2355.3
793.69299,-2210.09
794.16742,-2142.62
794.64185,-2269.9
795.11627,-2352.16
795.5907,-2219.34
796.06512,-2190.83
796.53955,-2205.89
797.01398,-2108.68
797.48834,-2105.81
797.96277,-2027.66
798.43719,-1910.78
798.91162,-1983.34
799.38605,-2231.67
799.86047,-2133.4
800.3349,-1989.34
800.80933,-2201.79
801.28369,-2285.39
801.75812,-2238.72
802.23254,-2200.48
802.70697,-2185.46
803.1814,-2204.18
803.65582,-2226.37
804.13025,-2173.3
804.60468,-1839.09
805.07904,-1921.19
805.55347,-2151.6
806.02789,-2251.94
806.50232,-2301.4
806.97675,-2147.77
807.45117,-2172.24
807.9256,-2380.25
808.40002,-2228.14
808.87439,-2050.12
809.34882,-2128.24
809.82324,-2247.91
810.29767,-2217.8
810.77209,-2173.98
811.24652,-2250.53
811.72095,-2342.62
812.19537,-2177.16
812.66974,-2314
813.14417,-1856.32
813.61859,-1316.93
814.09302,-914.863
814.56744,-406.776
815.04187,-69.0799
815.5163,90.7745
815.99072,-235.817
816.46509,-880.618
816.93951,-1405.72
817.41394,-2046.83
817.88837,-2298
818.36279,-2248.13
818.83722,-2235.59
819.31165,-2409.29
819.78607,-2371.66
820.26044,-2396.79
820.73486,-2269.02
821.20929,-2278.06
821.68372,-2396.12
822.15814,-2201.18
822.63257,-2209.86
823.10699,-2417.5
823.58142,-2308.96
824.05579,-2270.28
824.53021,-2275.84
825.00464,-2306.62
825.47906,-2316.61
825.95349,-2347.2
826.42792,-2480.2
826.90234,-2422.09
827.37677,-2312.95
827.85114,-2306.31
828.32556,-2368.78
828.79999,-2229.17
829.27441,-1992.66
829.74884,-1996.92
830.22327,-1913.82
830.69769,-1850.89
831.17212,-1909.41
831.64648,-2019.67
832.12091,-2121.48
832.59534,-2283.34
833.06976,-2269.22
833.54419,-2115.5
834.01862,-2134.77
834.49304,-2268.32
834.96747,-2327.51
835.44183,-2324.18
835.91626,-2274.33
836.39069,-2352.23
836.86511,-2464.38
837.33954,-2279.92
837.81396,-2384.4
838.28839,-2490.66
838.76282,-2337.12
839.23718,-2218.28
839.71161,-2267.64
840.18604,-2238.91
840.66046,-2209.03
841.13489,-2403.81
841.60931,-2451.08
842.08374,-2165.98
842.55817,-2153.18
843.03253,-2169.46
843.50696,-1947.46
843.98138,-1810.47
844.45581,-1485.57
844.93024,-1341.99
845.40466,-1014.73
845.87909,-871.587
846.35352,-1057.27
846.82788,-1184.76
847.30231,-1397.32
847.77673,-1860.83
848.25116,-2141.19
848.72559,-2163.73
849.20001,-2337.1
849.67444,-2442.54
850.14886,-2438.33
850.62323,-2371.35
851.09766,-2247.76
851.57208,-2395.84
852.04651,-2451.88
852.52094,-2563.94
852.99536,-2289.35
853.46979,-2139.51
853.94421,-2201.22
854.41858,-2212.15
854.89301,-2050.63
855.36743,-1938.3
855.84186,-1966.26
856.31628,-1830.86
856.79071,-2062.85
857.26514,-2019.26
857.73956,-2172.94
858.21393,-2483.77
858.68835,-2463.5
859.16278,-2227.49
859.63721,-2148.72
860.11163,-2310.59
860.58606,-2370.13
861.06049,-2559.89
861.53491,-2535.21
862.00928,-2245.66
862.4837,-2234.76
862.95813,-2277.33
863.43256,-2288.5
863.90698,-2275.04
864.38141,-2248.55
864.85583,-2397.96
865.3302,-2183.61
865.80463,-2213.44
866.27905,-2498.82
866.75348,-2381.65
867.22791,-2297.65
867.70233,-2483.16
868.17676,-2160.12
868.65118,-2186.26
869.12555,-2390.27
869.59998,-2119.25
870.0744,-2260.82
870.54883,-2236.98
871.02325,-2242.68
871.49768,-2479.95
871.97211,-2406.64
872.44653,-2345.02
872.9209,-2317.85
873.39532,-2372.25
873.86975,-2338.14
874.34418,-2335.5
874.8186,-2371.77
875.29303,-2254.49
875.76746,-2358.52
876.24188,-2305.66
876.71625,-2354.31
877.19067,-2389.4
877.6651,-2246.13
878.13953,-2247.88
878.61395,-2268.36
879.08838,-2399.03
879.56281,-2464.5
880.03723,-2247.64
880.5116,-2240.87
880.98602,-2288.7
881.46045,-2186.39
881.93488,-2273.96
882.4093,-2471.57
882.88373,-2480.84
883.35815,-2285.27
883.83258,-2287.61
884.30695,-2431.38
884.78137,-2485.48
885.2558,-2292.28
885.73022,-2210.04
886.20465,-2343.51
886.67908,-2306.86
887.1535,-2316.85
887.62793,-2421.52
888.10229,-2304.2
888.57672,-2321.63
889.05115,-2361.71
889.52557,-2081.53
890,-2361.24
890.47443,-2372.27
890.94885,-2246.37
891.42328,-2285.82
891.89764,-2354.93
892.37207,-2367.16
892.8465,-2370.73
893.32092,-2269.95
893.79535,-2229.49
894.26978,-2279.89
894.7442,-2266.71
895.21863,-2311.71
895.69299,-2365.02
896.16742,-2330.22
896.64185,-2327.6
897.11627,-2308.08
897.5907,-2210.12
898.06512,-2195.37
898.53955,-2314.43
899.01398,-2309.14
899.48834,-2294.79
899.96277,-2295.46
900.43719,-2348.13
900.91162,-2421.26
901.38605,-2401.81
901.86047,-2352.14
902.3349,-2352.62
902.80933,-2357.37
903.28369,-2304.4
903.75812,-2217.31
904.23254,-2302.49
904.70697,-2355.86
905.1814,-2331.35
905.65582,-2298.96
906.13025,-2360.35
906.60468,-2243.78
907.07904,-2235.51
907.55347,-2363.43
908.02789,-2222.44
908.50232,-2225.39
908.97675,-2330.77
909.45117,-2370.21
909.9256,-2435.8
910.40002,-2336.11
910.87439,-2362
911.34882,-2397.68
911.82324,-2292.72
912.29767,-2309.64
912.77209,-2366.99
913.24652,-2287.2
913.72095,-2067.79
914.19537,-1927.77
914.66974,-1835.07
915.14417,-1563.3
915.61859,-1457.38
916.09302,-1447.41
916.56744,-1703.93
917.04187,-1909.71
917.5163,-2137.77
917.99072,-2278.17
918.46509,-2241.48
918.93951,-2242.57
919.41394,-2339.18
919.88837,-2372.98
920.36279,-2362.27
920.83722,-2417.87
921.31165,-2401.78
921.78607,-2382.9
922.26044,-2369.59
922.73486,-2263.23
923.20929,-2368.9
923.68372,-2248.25
924.15814,-2249.02
924.63257,-2097.08
925.10699,-2049.1
925.58142,-2092.03
926.05579,-2020.18
926.53021,-2188.46
927.00464,-2348.05
927.47906,-2292.25
927.95349,-2273.44
928.42792,-2221.7
928.90234,-2163.6
929.37677,-2210.19
929.85114,-2276.34
930.32556,-2276.02
930.79999,-2456.64
931.27441,-2332.26
931.74884,-2192.97
932.22327,-2353.8
932.69769,-2288.07
933.17212,-2243.39
933.64648,-2370.09
934.12091,-2191.81
934.59534,-2196.53
935.06976,-2402.92
935.54419,-2331.65
936.01862,-2250.35
936.49304,-2359.02
936.96747,-2435.32
937.44183,-2297.16
937.91626,-2467.43
938.39069,-2501.05
938.86511,-2236.7
939.33954,-2295.88
939.81396,-2286.19
940.28839,-2218.71
940.76282,-2252.63
941.23718,-2306.32
941.71161,-2472.06
942.18604,-2423.11
942.66046,-2383.58
943.13489,-2354.2
943.60931,-2074.28
944.08374,-2227.7
944.55817,-2448.44
945.03253,-2248.65
945.50696,-2271.15
945.98138,-2349.6
946.45581,-2345
946.93024,-2396.18
947.40466,-2310.39
947.87909,-2307.23
948.35352,-2492.62
948.82788,-2337.78
949.30231,-2101.85
949.77673,-2413.03
950.25116,-2369.02
950.72559,-2350.46
951.20001,-2387.32
951.67444,-2254.37
952.14886,-2201.49
952.62323,-2318.25
953.09766,-2367.13
953.57208,-2317.65
954.04651,-2308.89
954.52094,-2319.86
954.99536,-2352.53
955.46979,-2382.5
955.94421,-2295.08
956.41858,-2262.09
956.89301,-2365.66
957.36743,-2287.46
957.84186,-2317.52
958.31628,-2344.14
958.79071,-2372.03
959.26514,-2313.19
959.73956,-2248.09
960.21393,-2424.87
960.68835,-2508.37
961.16278,-2299.38
961.63721,-2329.5
962.11163,-2299.22
962.58606,-2146.43
963.06049,-2227.21
963.53491,-2280.5
964.00928,-2299.46
964.4837,-2353.8
964.95813,-2388.55
965.43256,-2408.22
965.90698,-2442.72
966.38141,-2347.75
966.85583,-2284.35
967.33026,-2178.27
967.80463,-2090.9
968.27905,-2154.08
968.75348,-2107.29
969.22791,-2064.62
969.70233,-2063.46
970.17676,-2124.64
970.65118,-2259.5
971.12561,-2198.31
971.59998,-2257.66
972.0744,-2435.05
972.54883,-2451.06
973.02325,-2357.77
973.49768,-2176.64
973.97211,-2290.15
974.44653,-2524.64
974.92096,-2430.01
975.39532,-2294.95
975.86975,-2427.2
976.34418,-2299.11
976.8186,-2182.52
977.29303,-2460.14
977.76746,-2315
978.24188,-2363.55
978.71631,-2334.54
979.19067,-2318.1
979.6651,-2386.17
980.13953,-2323.81
980.61395,-2347.39
981.08838,-2284.96
981.56281,-2188.33
982.03723,-2320.95
982.51166,-2405.47
982.98602,-2257.33
983.46045,-2163.45
983.93488,-2177.69
984.4093,-2223.62
984.88373,-2343.84
985.35815,-2499
985.83258,-2463.12
986.30701,-2353.51
986.78137,-2325.73
987.2558,-2430.43
987.73022,-2398.04
988.20465,-2364.96
988.67908,-2431.33
989.1535,-2254.52
989.62793,-2254.92
990.10229,-2421.57
990.57672,-2221.52
991.05115,-2111.63
991.52557,-2330.22
992,-2376.39
992.47443,-2424.91
992.94885,-2201.15
993.42328,-2305.1
993.89764,-2358
994.37207,-2304.23
994.8465,-2443.34
995.32092,-2332.43
995.79535,-2163.68
996.26978,-2335.98
996.7442,-2475.43
997.21863,-2336.89
997.69299,-2263.51
998.16742,-2472.65
998.64185,-2511.37
999.11627,-2310.8
999.5907,-2483.86
1000.0651,-2204.32
1000.5396,-2408.76
1001.014,-2592.63
1001.4883,-2434.34
1001.9628,-2296.27
1002.4372,-2301.19
1002.9116,-2309.42
1003.386,-2249.56
1003.8605,-2350.75
1004.3349,-2395.45
1004.8093,-2380.64
1005.2837,-2337.05
1005.7581,-2230.44
1006.2325,-2425.61
1006.707,-2515.13
1007.1814,-2258.56
1007.6558,-2427.89
1008.1302,-2485.34
1008.6047,-2384.03
1009.079,-2237.68
1009.5535,-2295.37
1010.0279,-2433.34
1010.5023,-2307.15
1010.9767,-2343.53
1011.4512,-2333.34
1011.9256,-2230.3
1012.4,-2400.57
1012.8744,-2565.41
1013.3488,-2340.8
1013.8232,-2229.1
1014.2977,-2425.96
1014.7721,-2332.13
1015.2465,-2258.69
1015.7209,-1975.54
1016.1954,-1657.65
1016.6697,-1611.25
1017.1442,-1486.81
1017.6186,-1261.35
1018.093,-1402.78
1018.5674,-1850.27
1019.0419,-2090.46
1019.5163,-2122.49
1019.9907,-2311.51
1020.4651,-2339.58
1020.9395,-2271.43
1021.4139,-2459.55
1021.8884,-2300.24
1022.3628,-2340.6
1022.8372,-2405.69
1023.3116,-2352.63
1023.7861,-2398.3
1024.2605,-2407.47
1024.7349,-2355.8
1025.2094,-2262.69
1025.6837,-2295.01
1026.1581,-2434.43
1026.6326,-2342.95
1027.1069,-2427.39
1027.5814,-2371.18
1028.0558,-2362.58
1028.5303,-2457.61
1029.0046,-2417.65
1029.4791,-2313.83
1029.9535,-2235.86
1030.4279,-2260.21
1030.9023,-2446.47
1031.3767,-2382.37
1031.8512,-2312.06
1032.3256,-2344.5
1032.8,-2327.71
1033.2744,-2631.24
1033.7488,-2402.48
1034.2233,-2333.8
1034.6976,-2441.97
1035.1721,-2425.67
1035.6465,-2413.58
1036.121,-2442.67
1036.5953,-2392.48
1037.0698,-2344.99
1037.5442,-2291.6
1038.0186,-2223.89
1038.493,-2243.74
1038.9674,-2294.18
1039.4419,-2291.27
1039.9163,-2296.3
1040.3907,-2293.48
1040.8651,-2196.18
1041.3395,-2326.82
1041.814,-2208.94
1042.2883,-2248.62
1042.7628,-2296.87
1043.2372,-2260.98
1043.7117,-2338.53
1044.186,-2427.75
1044.6605,-2403.85
1045.1349,-2493.16
1045.6093,-2479.5
1046.0837,-2243.75
1046.5581,-2363.08
1047.0326,-2455.89
1047.507,-2329.24
1047.9814,-2362.56
1048.4558,-2291.03
1048.9302,-2383.75
1049.4047,-2181.8
1049.879,-2426.92
1050.3535,-2441.28
1050.8279,-2307.09
1051.3024,-2409.8
1051.7767,-2293.28
1052.2512,-2305.23
1052.7256,-2479.4
1053.2,-2297.82
1053.6744,-2433.08
1054.1488,-2451.85
1054.6233,-2332.9
1055.0977,-2243.12
1055.5721,-2198.7
1056.0465,-2240.43
1056.5209,-2373.58
1056.9954,-2424.12
1057.4697,-2213.58
1057.9442,-2364.56
1058.4186,-2418.63
1058.8931,-2315.02
1059.3674,-2393.94
1059.8419,-2379.85
1060.3163,-2467.77
1060.7906,-2454.31
1061.2651,-2437.36
1061.7395,-2365.43
1062.214,-2446.62
1062.6884,-2408.91
1063.1628,-2341.69
1063.6372,-2213.41
1064.1116,-2329.13
1064.5861,-2279.75
1065.0604,-2441.07
1065.5349,-2490.67
1066.0093,-2396.61
1066.4838,-2469.57
1066.9581,-2464.67
1067.4326,-2506.7
1067.907,-2333.36
1068.3813,-2260.68
1068.8558,-2401.79
1069.3302,-2432.81
1069.8047,-2540.74
1070.2791,-2350.7
1070.7535,-2280.5
1071.2279,-2464.44
1071.7023,-2361.95
1072.1768,-2238.04
1072.6511,-2165.97
1073.1256,-2400.32
1073.6,-2465.43
1074.0745,-2208.33
1074.5488,-2283.58
1075.0233,-2367.93
1075.4977,-2489.78
1075.972,-2510.94
1076.4465,-2402.27
1076.9209,-2291.19
1077.3954,-2432.63
1077.8698,-2277.77
1078.3442,-2268.27
1078.8186,-2423.49
1079.293,-2230.58
1079.7675,-2434.88
1080.2418,-2490.78
1080.7163,-2471.96
1081.1907,-2564.76
1081.6652,-2247.26
1082.1395,-2309.83
1082.614,-2481.16
1083.0884,-2572.25
1083.5627,-2399.51
1084.0372,-2333.76
1084.5116,-2268.7
1084.9861,-2404.93
1085.4604,-2553.67
1085.9349,-2431.25
1086.4093,-2350.38
1086.8837,-2398.02
1087.3582,-2347.57
1087.8325,-2254.07
1088.307,-2281.98
1088.7814,-2421.51
1089.2559,-2271.43
1089.7302,-2189.42
1090.2047,-2394.98
1090.6791,-2339.89
1091.1534,-2374.7
1091.6279,-2203.43
1092.1023,-2186.82
1092.5768,-2269.17
1093.0511,-2370.17
1093.5256,-2318.34
1094,-2287.06
1094.4744,-2400.72
1094.9489,-2292
1095.4232,-2211.39
1095.8977,-2339.22
1096.3721,-2365.49
1096.8466,-2209.37
1097.3209,-2330.24
1097.7954,-2307.34
1098.2698,-2252.49
1098.7441,-2420.38
1099.2186,-2245.47
1099.693,-2259.5
1100.1675,-2321.77
1100.6418,-2262.03
1101.1163,-2407.04
1101.5907,-2380.37
1102.0651,-2298.43
1102.5396,-2413.02
1103.0139,-2263.4
1103.4884,-2243.77
1103.9628,-2367.24
1104.4373,-2409.95
1104.9116,-2349.09
1105.3861,-2233.14
1105.8605,-2291.81
1106.3348,-2342.8
1106.8093,-2333.57
1107.2837,-2361.31
1107.7582,-2281.87
1108.2325,-2282.58
1108.707,-2426.65
1109.1814,-2476.38
1109.6558,-2454.84
1110.1302,-2256.78
1110.6046,-2371.91
1111.0791,-2361.45
1111.5535,-2272.03
1112.028,-2245.24
1112.5023,-2364.13
1112.9767,-2372.94
1113.4512,-2387.27
1113.9255,-2428.49
1114.4,-2349.91
1114.8744,-2324.74
1115.3489,-2351.77
1115.8232,-2407.09
1116.2977,-2386.65
1116.7721,-2469.35
1117.2465,-2463.35
1117.7209,-2381.79
1118.1953,-2397.82
1118.6698,-2272.28
1119.1442,-2366.44
1119.6187,-2583.54
1120.093,-2461.65
1120.5674,-2316.02
1121.0419,-2412.99
1121.5162,-2330.2
1121.9907,-2257.75
1122.4651,-2295.26
1122.9396,-2211.45
1123.4139,-2322.08
1123.8884,-2392.76
1124.3628,-2305.53
1124.8372,-2416.78
1125.3116,-2427.7
1125.786,-2388.82
1126.2605,-2408.43
1126.7349,-2244
1127.2094,-2217
1127.6837,-2447.02
1128.1581,-2387.98
1128.6326,-2303.03
1129.1069,-2500.08
1129.5814,-2402.18
1130.0558,-2432.74
1130.5303,-2282.53
1131.0046,-2341.9
1131.4791,-2407.77
1131.9535,-2276.94
1132.4279,-2385.24
1132.9023,-2398.34
1133.3767,-2267.99
1133.8512,-2249.51
1134.3256,-2269.61
1134.8,-2399.91
1135.2744,-2541.51
1135.7488,-2484.83
1136.2233,-2351.75
1136.6976,-2388.78
1137.1721,-2419.25
1137.6465,-2283.95
1138.121,-2296.54
1138.5953,-2514.92
1139.0698,-2443.75
1139.5442,-2272.88
1140.0186,-2383.33
1140.493,-2365.74
1140.9674,-2180.36
1141.4419,-2364.82
1141.9163,-2533.33
1142.3907,-2405.5
1142.8651,-2306.56
1143.3395,-2299.43
1143.814,-2332.28
1144.2883,-2427.23
1144.7628,-2399.89
1145.2372,-2360.1
1145.7117,-2393.98
1146.186,-2349.28
1146.6605,-2471.08
1147.1349,-2373.59
1147.6093,-2307.45
1148.0837,-2314.78
1148.5581,-2273.7
1149.0326,-2324.99
1149.507,-2394.13
1149.9814,-2492.93
1150.4558,-2494.63
1150.9302,-2486.5
1151.4047,-2294.56
1151.879,-2102.42
1152.3535,-2448.91
1152.8279,-2402.52
1153.3024,-2292.88
1153.7767,-2282.77
1154.2512,-2380.32
1154.7256,-2377.03
1155.2,-2490.64
1155.6744,-2347.85
1156.1488,-2319.59
1156.6233,-2534.92
1157.0977,-2317.57
1157.5721,-2381.16
1158.0465,-2491.15
1158.5209,-2378.9
1158.9954,-2447.89
1159.4697,-2432.17
1159.9442,-2316.98
1160.4186,-2414.24
1160.8931,-2383.65
1161.3674,-2483.5
1161.8419,-2494.77
1162.3163,-2497.96
1162.7906,-2455.52
1163.2651,-2412.36
1163.7395,-2466.65
1164.214,-2401.77
1164.6884,-2324.27
1165.1628,-2446.38
1165.6372,-2397.97
1166.1116,-2376.41
1166.5861,-2433.35
1167.0604,-2380.91
1167.5349,-2357.67
1168.0093,-2260.48
1168.4838,-2429.2
1168.9581,-2440.1
1169.4326,-2330.08
1169.907,-2382.48
1170.3813,-2316.42
1170.8558,-2265.04
1171.3302,-2387.05
1171.8047,-2328.84
1172.2791,-2278.36
1172.7535,-2445.17
1173.2279,-2404.74
1173.7023,-2296.61
1174.1768,-2357.81
1174.6511,-2517.2
1175.1256,-2445.02
1175.6,-2321.92
1176.0745,-2358.12
1176.5488,-2397.23
1177.0233,-2393.63
1177.4977,-2484.88
1177.972,-2360.33
1178.4465,-2358.11
1178.9209,-2462.97
1179.3954,-2326.57
1179.8698,-2293.81
1180.3442,-2386.53
1180.8186,-2408.14
1181.293,-2462.84
1181.7675,-2327.08
1182.2418,-2489.4
1182.7163,-2504.92
1183.1907,-2270.34
1183.6652,-2470.22
1184.1395,-2480.11
1184.614,-2242.96
1185.0884,-2560.86
1185.5627,-2401.56
1186.0372,-2384.66
1186.5116,-2536.31
1186.9861,-2407.26
1187.4604,-2419.65
1187.9349,-2469.06
1188.4093,-2368.78
1188.8837,-2228.07
1189.3582,-2209.33
1189.8325,-2312.54
1190.307,-2530.45
1190.7814,-2439.58
1191.2559,-2287.24
1191.7302,-2241.1
1192.2047,-2176.88
1192.6791,-2225.12
1193.1534,-2460.31
1193.6279,-2434.67
1194.1023,-2390.45
1194.5768,-2407.34
1195.0511,-2381.97
1195.5256,-2458.45
1196,-2449.48
1196.4744,-2526.47
1196.9489,-2334.34
1197.4232,-2372.85
1197.8977,-2502.75
1198.3721,-2352.06
1198.8466,-2254.73
1199.3209,-2284.67
1199.7954,-2256.25
1200.2698,-2398.78
1200.7441,-2446.99
1201.2186,-2337.41
1201.693,-2345.14
1202.1675,-2381.39
1202.6418,-2415.45
1203.1163,-2429.89
1203.5907,-2269.48
1204.0651,-2289.01
1204.5396,-2508.3
1205.0139,-2463.11
1205.4884,-2229.91
1205.9628,-2365.21
1206.4373,-2547.14
1206.9116,-2404.87
1207.3861,-2303.38
1207.8605,-2340.35
1208.3348,-2413.86
1208.8093,-2409.27
1209.2837,-2431.52
1209.7582,-2432.82
1210.2325,-2332.08
1210.707,-2315.41
1211.1814,-2427.93
1211.6558,-2651.82
1212.1302,-2550
1212.6046,-2233
1213.0791,-2375.14
1213.5535,-2345.15
1214.028,-2385.63
1214.5023,-2502.81
1214.9768,-2260.49
1215.4512,-2242.69
1215.9255,-2544.97
1216.4,-2442.93
1216.8744,-2218.92
1217.3489,-2385.97
1217.8232,-2467.82
1218.2977,-2294.54
1218.7721,-2414.26
1219.2465,-2443.56
1219.7209,-2363.21
1220.1953,-2503.49
1220.6698,-2576.68
1221.1442,-2399.99
1221.6187,-2395.63
1222.093,-2488.54
1222.5675,-2508.82
1223.0419,-2502.79
1223.5162,-2324.82
1223.9907,-2324.62
1224.4651,-2473.33
1224.9396,-2367.72
1225.4139,-2231.92
1225.8884,-2217
1226.3628,-2419.65
1226.8372,-2458.15
1227.3116,-2312.85
1227.786,-2429.69
1228.2605,-2416.3
1228.7349,-2226.57
1229.2094,-2492.59
1229.6837,-2620.89
1230.1581,-2466.53
1230.6326,-2496.4
1231.1069,-2480.09
1231.5814,-2351.06
1232.0558,-2443.22
1232.5303,-2531.93
1233.0046,-2405.52
1233.4791,-2384.85
1233.9535,-2476.15
1234.4279,-2347.71
1234.9023,-2376.94
1235.3767,-2568.9
1235.8512,-2390.94
1236.3256,-2419.17
1236.8,-2407.34
1237.2744,-2282.22
1237.7488,-2258.52
1238.2233,-2359.28
1238.6976,-2452.64
1239.1721,-2346.84
1239.6465,-2258.32
1240.121,-2353.08
1240.5953,-2404.39
1241.0698,-2436.56
1241.5442,-2423.74
1242.0186,-2545.81
1242.493,-2313.83
1242.9674,-2413.53
1243.4419,-2418.09
1243.9163,-2580.09
1244.3907,-2479.81
1244.8651,-2460.45
1245.3395,-2470.54
1245.814,-2280.01
1246.2883,-2284.87
1246.7628,-2405.85
1247.2372,-2337.02
1247.7117,-2367.83
1248.186,-2406.58
1248.6605,-2254.18
1249.1349,-2345.03
1249.6093,-2291.46
1250.0837,-2082.91
1250.5581,-2134.57
1251.0326,-2331
1251.507,-2379.08
1251.9814,-2415.9
1252.4558,-2387.58
1252.9302,-2462.41
1253.4047,-2397.52
1253.879,-2322.33
1254.3535,-2578.65
1254.8279,-2524.76
1255.3024,-2225.48
1255.7767,-2328.51
1256.2512,-2275.69
1256.7256,-2330.31
1257.2,-2270.26
1257.6744,-2555.12
1258.1488,-2540.78
1258.6233,-2195.28
1259.0977,-2348.3
1259.5721,-2405.99
1260.0465,-2440.18
1260.5209,-2337.29
1260.9954,-2406.06
1261.4697,-2512.43
1261.9442,-2315.38
1262.4186,-2345.94
1262.8931,-2310.97
1263.3674,-2260.26
1263.8419,-2390.71
1264.3163,-2418.7
1264.7906,-2386.12
1265.2651,-2422.08
1265.7395,-2483.89
1266.214,-2487.74
1266.6884,-2392.19
1267.1628,-2315.88
1267.6372,-2447.6
1268.1116,-2466.07
1268.5861,-2484.71
1269.0604,-2413.43
1269.5349,-2387.05
1270.0093,-2538.08
1270.4838,-2346.09
1270.9581,-2437.3
1271.4326,-2293.57
1271.907,-2248.17
1272.3813,-2327.35
1272.8558,-2500.05
1273.3302,-2461.06
1273.8047,-2425.19
1274.2791,-2549.62
1274.7535,-2621.61
1275.2279,-2449.01
1275.7023,-2227.32
1276.1768,-2234.1
1276.6511,-2285.87
1277.1256,-2490.97
1277.6,-2547.29
1278.0745,-2245.9
1278.5488,-2361.69
1279.0233,-2484.41
1279.4977,-2279.11
1279.972,-2209.61
1280.4465,-2333.92
1280.9209,-2445.92
1281.3954,-2413.75
1281.8698,-2317.77
1282.3442,-2377.71
1282.8186,-2518.2
1283.293,-2488.55
1283.7675,-2458.77
1284.2418,-2260.25
1284.7163,-2263.76
1285.1907,-2509.03
1285.6652,-2310.09
1286.1395,-2341.5
1286.614,-2373.66
1287.0884,-2213.4
1287.5627,-2705.64
1288.0372,-2501.29
1288.5116,-2525.31
1288.9861,-2552.86
1289.4604,-2290.08
1289.9349,-2331.17
1290.4093,-2533.12
1290.8837,-2519.28
1291.3582,-2441.45
1291.8325,-2350.87
1292.307,-2229.07
1292.7814,-2411.73
1293.2559,-2592.76
1293.7302,-2439.42
1294.2047,-2261.94
1294.6791,-2427.83
1295.1534,-2382.98
1295.6279,-2374.57
1296.1023,-2439.59
1296.5768,-2380.02
1297.0511,-2284.14
1297.5256,-2289.12
1298,-2396.26
1298.4744,-2476.73
1298.9489,-2412.99
1299.4232,-2319.24
1299.8977,-2334.75
1300.3721,-2490.56
1300.8466,-2489.55
1301.3209,-2451.37
1301.7954,-2401.27
1302.2698,-2335.03
1302.7441,-2312.87
1303.2186,-2455.9
1303.693,-2471.83
1304.1675,-2413.6
1304.6418,-2382.63
1305.1163,-2275.35
1305.5907,-2270.74
1306.0651,-2447.35
1306.5396,-2402.08
1307.0139,-2308.03
1307.4884,-2371.43
1307.9628,-2401.75
1308.4373,-2444.04
1308.9116,-2548.46
1309.3861,-2437.42
1309.8605,-2455.34
1310.3348,-2354.18
1310.8093,-2386.37
1311.2837,-2527.29
1311.7582,-2495.98
1312.2325,-2464.63
1312.707,-2436.95
1313.1814,-2446.29
1313.6558,-2468.41
1314.1302,-2448.4
1314.6046,-2533.61
1315.0791,-2392.31
1315.5535,-2413.27
1316.028,-2464.3
1316.5023,-2543.79
1316.9768,-2612.76
1317.4512,-2481.84
1317.9255,-2536.22
1318.4,-2469.58
1318.8744,-2401.96
1319.3489,-2474.71
1319.8232,-2446.19
1320.2977,-2475.62
1320.7721,-2479.42
1321.2465,-2482.76
1321.7209,-2536.04
1322.1953,-2479.93
1322.6698,-2388.35
1323.1442,-2503.93
1323.6187,-2558.1
1324.093,-2535.12
1324.5675,-2580.72
1325.0419,-2506.03
1325.5162,-2542.51
1325.9907,-2563.69
1326.4651,-2496.14
1326.9396,-2618.35
1327.4139,-2592.61
1327.8884,-2439.83
1328.3628,-2575.46
1328.8372,-2506.33
1329.3116,-2313.7
1329.786,-2497.57
1330.2605,-2402.89
1330.7349,-2572.17
1331.2094,-2542.5
1331.6837,-2449.64
1332.1582,-2620.75
1332.6326,-2647.23
1333.1069,-2602.87
1333.5814,-2507.69
1334.0558,-2520.91
1334.5303,-2515.84
1335.0046,-2622.45
1335.4791,-2629.52
1335.9535,-2580.95
1336.4279,-2683.95
1336.9023,-2590.49
1337.3767,-2614.61
1337.8512,-2571.68
1338.3256,-2499.74
1338.8,-2489.64
1339.2744,-2535.84
1339.7489,-2666.38
1340.2233,-2446.36
1340.6976,-2611.19
1341.1721,-2430.82
1341.6465,-2408.82
1342.121,-2530.3
1342.5953,-2662.03
1343.0698,-2754.68
1343.5442,-2607.45
1344.0186,-2603.63
1344.493,-2659.7
1344.9674,-2538.6
1345.4419,-2604.62
1345.9163,-2862.56
1346.3907,-2722.28
1346.8651,-2500.14
1347.3396,-2619.05
1347.814,-2627.74
1348.2883,-2485.4
1348.7628,-2503.98
1349.2372,-2634.82
1349.7117,-2666.31
1350.186,-2644.92
1350.6605,-2678.57
1351.1349,-2629.38
1351.6093,-2627.95
1352.0837,-2709
1352.5581,-2646.59
1353.0326,-2725.22
1353.507,-2678.24
1353.9814,-2720.24
1354.4558,-2532.27
1354.9302,-2550.18
1355.4047,-2383.39
1355.879,-2550.03
1356.3535,-2527.89
1356.8279,-2548.4
1357.3024,-2607.4
1357.7767,-2552.79
1358.2512,-2633.63
1358.7256,-2544.2
1359.2,-2408.82
1359.6744,-2655.4
1360.1488,-2700
1360.6233,-2611.26
1361.0977,-2732.97
1361.5721,-2630.35
1362.0465,-2681.11
1362.5209,-2610.83
1362.9954,-2533.9
1363.4697,-2716.3
1363.9442,-2570.28
1364.4186,-2285.07
1364.8931,-2375.96
1365.3674,-2540.7
1365.8419,-2480.44
1366.3163,-2577.79
1366.7906,-2678.14
1367.2651,-2530.34
1367.7395,-2534.88
1368.214,-2657.02
1368.6884,-2694.09
1369.1628,-2578.16
1369.6372,-2614.22
1370.1116,-2574.34
1370.5861,-2635.4
1371.0604,-2707.63
1371.5349,-2538.58
1372.0093,-2586.73
1372.4838,-2724.07
1372.9581,-2597.78
1373.4326,-2498.78
1373.907,-2618.74
1374.3813,-2710.18
1374.8558,-2568.49
1375.3302,-2547.22
1375.8047,-2793.77
1376.2791,-2695.6
1376.7535,-2582.25
1377.2279,-2676.79
1377.7023,-2535.96
1378.1768,-2651.65
1378.6511,-2542.65
1379.1256,-2557.05
1379.6,-2659.36
1380.0745,-2688.87
1380.5488,-2602.56
1381.0233,-2576.56
1381.4977,-2679.31
1381.972,-2737.24
1382.4465,-2633.76
1382.9209,-2572.6
1383.3954,-2711.81
1383.8698,-2737.82
1384.3442,-2639.69
1384.8186,-2711.53
1385.293,-2521.17
1385.7675,-2641.68
1386.2418,-2740.84
1386.7163,-2461.92
1387.1907,-2728.33
1387.6652,-2651.66
1388.1395,-2684.37
1388.614,-2645.62
1389.0884,-2547.57
1389.5627,-2786.14
1390.0372,-2718.32
1390.5116,-2510.13
1390.9861,-2677.28
1391.4604,-2568.41
1391.9349,-2510.12
1392.4093,-2734.88
1392.8837,-2621.19
1393.3582,-2509.87
1393.8325,-2533.48
1394.307,-2556.12
1394.7814,-2693.14
1395.2559,-2692.79
1395.7302,-2693.49
1396.2047,-2583.95
1396.6791,-2488.8
1397.1534,-2515.59
1397.6279,-2553.33
1398.1023,-2483.99
1398.5768,-2509.87
1399.0511,-2620.45
1399.5256,-2494.08
1400,-2635.43
