Date and Time:                Mon Jan 17 22:37:19.000 2022
Software Version:             4.31.30023.0
Temperature (C):              -50
Model:                        DU420_BVF
Data Type:                    Counts (Bg Corrected)
Acquisition Mode:             Accumulate
Trigger Mode:                 Internal
Exposure Time (secs):         0.09999
Accumulate Cycle Time (secs): 0.09999
Frequency (Hz):               10.001
Number of Accumulations:      1000
Readout Mode:                 Full Vertical Binning
Horizontal binning:           1
Extended Dynamic Range:       off
Horizontally flipped:         false
Vertical Shift Speed (usecs): 8.25
Pixel Readout Time (usecs):   30.303
Serial Number:                22942
Pre-Amplifier Gain:           1.000000
Spurious Noise Filter Mode:   No Filter
Photon counted:               false
Data Averaging Filter Mode:   No Filter
KY328i:
Serial Number:                
Wavelength (nm):              889.526
Grating Groove Density (l/mm):150.012
Grating Blaze:                500nm
Output Flipper Port:          Direct
Filter:                       6-785 LP



380,-2869.92
380.4744,-2855.83
380.94882,-3033.19
381.42325,-2959.68
381.89767,-3064.45
382.37207,-3091.82
382.8465,-3030.4
383.32092,-3045.56
383.79535,-3239.93
384.26974,-3231.04
384.74417,-3054.7
385.2186,-3130.04
385.69302,-3167.22
386.16742,-3256.69
386.64185,-3163.75
387.11627,-3039.63
387.5907,-3071.67
388.06509,-3028.25
388.53952,-2991.93
389.01395,-2953.05
389.48837,-2966.83
389.96277,-3029.89
390.43719,-3017.79
390.91162,-3094.04
391.38605,-3212.53
391.86044,-3037.51
392.33487,-3040.29
392.8093,-3201.64
393.28372,-3055.48
393.75812,-3082.46
394.23254,-3091.49
394.70697,-3089.3
395.1814,-3126.31
395.65579,-3053.78
396.13022,-3128.09
396.60464,-3054.94
397.07907,-2963.29
397.55347,-3138.68
398.02789,-2945.32
398.50232,-3030.51
398.97675,-3146.14
399.45114,-3098.89
399.92557,-3054.09
400.39999,-3016.78
400.87442,-3010.83
401.34882,-3055.27
401.82324,-3021.57
402.29767,-3037.68
402.77209,-3056.76
403.24649,-3015.91
403.72092,-2990.93
404.19534,-3038.38
404.66977,-3161.08
405.14417,-3045.75
405.61859,-3172.44
406.09302,-2949.41
406.56744,-2961.67
407.04184,-2378.29
407.51627,-20.9834
407.99069,3876.35
408.46512,7780.54
408.93951,10188.7
409.41394,11131
409.88837,10835.4
410.36279,8634.61
410.83719,4386.18
411.31161,415.264
411.78604,-1935.25
412.26047,-2588.33
412.73486,-2888.07
413.20929,-2912.31
413.68372,-2986.04
414.15814,-3050.5
414.63254,-2870.19
415.10696,-2906.45
415.58139,-3055.89
416.05582,-3065.36
416.53021,-3084.87
417.00464,-3165.17
417.47906,-3034.11
417.95349,-3143.61
418.42789,-3229.83
418.90231,-3047.78
419.37674,-3095.44
419.85117,-2991.61
420.32556,-2924.71
420.79999,-2930.01
421.27441,-3000.22
421.74884,-3201.62
422.22324,-3032.23
422.69766,-3032.02
423.17209,-3181.8
423.64651,-3080.45
424.12091,-3026.95
424.59534,-2963.15
425.06976,-3058.17
425.54419,-3042.4
426.01859,-2868.74
426.49301,-3010.87
426.96744,-3041.39
427.44186,-2962.31
427.91626,-3076.04
428.39069,-3158.99
428.86511,-2992.07
429.33954,-2837.01
429.81393,-3110.04
430.28836,-3067.6
430.76279,-3022.64
431.23721,-3116.13
431.71161,-3149.57
432.18604,-3095.81
432.66046,-3132.53
433.13489,-3245.26
433.60928,-3151.29
434.08371,-3059.85
434.55814,-3074.05
435.03256,-3081.61
435.50696,-3035.23
435.98138,-2992.42
436.45581,-3069.27
436.93024,-3271.33
437.40463,-3038.59
437.87906,-2869.48
438.35349,-2923.75
438.82791,-2974.2
439.30231,-2897.76
439.77673,-2655.9
440.25116,-2753.22
440.72559,-2943.69
441.19998,-2965.71
441.67441,-3163.05
442.14883,-3026.75
442.62326,-2902.67
443.09766,-3095.76
443.57208,-3107.53
444.04651,-2907.62
444.52094,-2971.86
444.99533,-3050.11
445.46976,-2909.27
445.94418,-2856.39
446.41861,-2963.51
446.89301,-3101.03
447.36743,-3083.52
447.84186,-3170.2
448.31628,-3182.39
448.79068,-2828.57
449.26511,-2994.72
449.73953,-3077.93
450.21396,-2867.78
450.68835,-3033.93
451.16278,-3038.34
451.63721,-3067.04
452.11163,-3132.29
452.58603,-3081.06
453.06046,-3045.11
453.53488,-2974.19
454.00931,-3029.53
454.4837,-3079.65
454.95813,-2986.19
455.43256,-2966.56
455.90698,-3014.88
456.38138,-2992.76
456.8558,-3011.47
457.33023,-3151.06
457.80466,-3221.83
458.27905,-3114.47
458.75348,-2923.89
459.22791,-2860.62
459.70233,-2941.56
460.17673,-2897.85
460.65115,-2882.7
461.12558,-2999.47
461.60001,-2896.32
462.0744,-3024.81
462.54883,-3066.32
463.02325,-3052.79
463.49768,-3040.96
463.97208,-2877.98
464.4465,-2970.56
464.92093,-2938.83
465.39536,-3052.2
465.86975,-2989.44
466.34418,-2957.23
466.8186,-3042.06
467.29303,-2970.99
467.76743,-2940.25
468.24185,-3117.77
468.71628,-3063.27
469.1907,-2969.98
469.6651,-2992.14
470.13953,-2954.49
470.61395,-3043.48
471.08838,-3101.46
471.56277,-2958.29
472.0372,-2925.25
472.51163,-2953.96
472.98605,-2939.81
473.46045,-3001.53
473.93488,-2980.89
474.4093,-2928.32
474.88373,-2899.34
475.35812,-2869.88
475.83255,-3018.59
476.30698,-3022.18
476.7814,-3047.15
477.2558,-3047.1
477.73022,-2904.51
478.20465,-2931.51
478.67908,-3017.35
479.15347,-3045.75
479.6279,-3032.69
480.10233,-2878.03
480.57675,-2820.78
481.05115,-2944.02
481.52557,-2984.85
482,-2962.03
482.47443,-2936.02
482.94882,-3130.45
483.42325,-3023.47
483.89767,-2960.32
484.3721,-2915.52
484.8465,-2859.02
485.32092,-2879.81
485.79535,-3013.54
486.26978,-3060.5
486.74417,-3014.41
487.2186,-2898.81
487.69302,-2850.16
488.16745,-3015.21
488.64185,-2984.7
489.11627,-2869.79
489.5907,-2931.33
490.06512,-2936.4
490.53952,-2942.68
491.01395,-2889.62
491.48837,-2814.41
491.9628,-2923.33
492.43719,-3013
492.91162,-2930.31
493.38605,-2858.44
493.86047,-2803.28
494.33487,-2801.89
494.8093,-2885.62
495.28372,-2844.72
495.75815,-2782.28
496.23254,-2912.33
496.70697,-2880.38
497.1814,-2901.57
497.65582,-2945.63
498.13022,-2886.95
498.60464,-2947.5
499.07907,-2804.08
499.5535,-2768.56
500.02789,-2776.82
500.50232,-2861.43
500.97675,-2949.21
501.45114,-2962.67
501.92557,-2846.71
502.39999,-2854.55
502.87442,-2877.05
503.34882,-2834.92
503.82324,-2911.75
504.29767,-2885.66
504.77209,-2856.02
505.24649,-2812.02
505.72092,-2740.32
506.19534,-3024.23
506.66977,-2890.56
507.14417,-2821.1
507.61859,-2939.98
508.09302,-3004.74
508.56744,-2917.37
509.04184,-2843.11
509.51627,-2819.25
509.99069,-2817.01
510.46512,-2919.54
510.93951,-2952.23
511.41394,-3027.51
511.88837,-2918.35
512.36279,-2750.2
512.83722,-2754.7
513.31165,-2820.76
513.78601,-2782.81
514.26044,-2904.47
514.73486,-2988.01
515.20929,-2807.46
515.68372,-2784.39
516.15814,-2949.47
516.63257,-2927.7
517.10699,-2886.31
517.58136,-2936.28
518.05579,-2931.59
518.53021,-2867.51
519.00464,-2859.35
519.47906,-3089.4
519.95349,-3020.33
520.42792,-2828.08
520.90234,-2856.39
521.37671,-2782.82
521.85114,-2707.01
522.32556,-2764.29
522.79999,-2869.54
523.27441,-2813.45
523.74884,-2789.7
524.22327,-2923.52
524.69769,-2537.55
525.17206,-2662.18
525.64648,-2896.89
526.12091,-2726.54
526.59534,-2765.12
527.06976,-2812.14
527.54419,-2779.82
528.01862,-2895.13
528.49304,-2863.21
528.96741,-2876.6
529.44183,-3012.84
529.91626,-2873.45
530.39069,-2676.31
530.86511,-2855.24
531.33954,-2813.61
531.81396,-2857.45
532.28839,-2871.14
532.76276,-2752.49
533.23718,-2758.92
533.71161,-2752.16
534.18604,-2828.82
534.66046,-3011.64
535.13489,-2927.05
535.60931,-2779.23
536.08374,-2813.49
536.55811,-2863.19
537.03253,-2849.16
537.50696,-2789
537.98138,-2883.51
538.45581,-2826.33
538.93024,-2697.4
539.40466,-2725.89
539.87909,-2753.61
540.35345,-2809.34
540.82788,-2797.98
541.30231,-2766.99
541.77673,-2854.51
542.25116,-2773.29
542.72559,-2576.03
543.20001,-2633.32
543.67444,-2584.81
544.1488,-2639.4
544.62323,-2551.59
545.09766,-2512.03
545.57208,-2577.9
546.04651,-2561.12
546.52094,-2517.35
546.99536,-2423.8
547.46979,-2365.16
547.94415,-2437.29
548.41858,-2509.35
548.89301,-2477.74
549.36743,-2448.54
549.84186,-2508.62
550.31628,-2616.83
550.79071,-2612.79
551.26514,-2601.1
551.7395,-2617.81
552.21393,-2596.78
552.68835,-2667.1
553.16278,-2783.8
553.63721,-2817.22
554.11163,-2827.87
554.58606,-2668.7
555.06049,-2583.61
555.53485,-2765.91
556.00928,-2798.69
556.4837,-2639.15
556.95813,-2606.51
557.43256,-2720.38
557.90698,-2510.38
558.38141,-2670.33
558.85583,-2675.52
559.3302,-2641.77
559.80463,-2706.26
560.27905,-2599.09
560.75348,-2769.12
561.22791,-2773.76
561.70233,-2689.07
562.17676,-2645.22
562.65118,-2586.13
563.12555,-2638.16
563.59998,-2794.79
564.0744,-2726.93
564.54883,-2535.17
565.02325,-2541.82
565.49768,-2575.97
565.97211,-2504.65
566.44653,-2681.5
566.9209,-2808.03
567.39532,-2646.98
567.86975,-2707.49
568.34418,-2641.05
568.8186,-2800.84
569.29303,-2714.56
569.76746,-2664.57
570.24188,-2652.09
570.71625,-2471.12
571.19067,-2611.74
571.6651,-2603.27
572.13953,-2517.37
572.61395,-2471.67
573.08838,-2517.49
573.56281,-2614.49
574.03723,-2478.59
574.5116,-2639.42
574.98602,-2729.01
575.46045,-2500.08
575.93488,-2600.96
576.4093,-2665.28
576.88373,-2611.08
577.35815,-2531.02
577.83258,-2546.34
578.30695,-2649.66
578.78137,-2497.41
579.2558,-2470.47
579.73022,-2687.66
580.20465,-2543.55
580.67908,-2452.76
581.1535,-2535.18
581.62793,-2395.34
582.10229,-2407.84
582.57672,-2500.07
583.05115,-2539.23
583.52557,-2397.97
584,-2314.64
584.47443,-2455.65
584.94885,-2497.27
585.42328,-2480.61
585.89764,-2429.47
586.37207,-2258.71
586.8465,-2357.71
587.32092,-2242.75
587.79535,-2384.75
588.26978,-2462.29
588.7442,-2239.14
589.21863,-2269.48
589.69299,-2437.89
590.16742,-2368.3
590.64185,-2263.41
591.11627,-2260.23
591.5907,-2186.26
592.06512,-2156.39
592.53955,-2260.9
593.01398,-2255.21
593.48834,-2205.01
593.96277,-2246.72
594.43719,-2555.25
594.91162,-2351.74
595.38605,-2263.96
595.86047,-2441.25
596.3349,-2419.83
596.80933,-2360.97
597.28369,-2204.33
597.75812,-2256.33
598.23254,-2361.88
598.70697,-2265.61
599.1814,-2198.2
599.65582,-2084.89
600.13025,-2103.85
600.60468,-2198.28
601.07904,-2138.95
601.55347,-2191.14
602.02789,-2261.76
602.50232,-2068.95
602.97675,-2176.93
603.45117,-2256.76
603.9256,-2078.29
604.40002,-2258.17
604.87439,-2275.78
605.34882,-2152.08
605.82324,-2100.78
606.29767,-2094.76
606.77209,-2058.76
607.24652,-2108.26
607.72095,-2108.81
608.19537,-2085.32
608.66974,-2091.91
609.14417,-2249.39
609.61859,-2215.16
610.09302,-2155.95
610.56744,-2259.35
611.04187,-2162.59
611.5163,-2092.17
611.99072,-2104.56
612.46509,-2146.9
612.93951,-2124.67
613.41394,-1940.43
613.88837,-1856.19
614.36279,-1991.35
614.83722,-2089.01
615.31165,-2076.3
615.78607,-2185.48
616.26044,-2075.61
616.73486,-2016.54
617.20929,-2167.79
617.68372,-2151.03
618.15814,-2168.65
618.63257,-2208.73
619.10699,-2261.8
619.58142,-2166.81
620.05579,-2261.78
620.53021,-2201.31
621.00464,-2153.85
621.47906,-2225.82
621.95349,-2117.5
622.42792,-2085.37
622.90234,-2130.47
623.37671,-2195.97
623.85114,-2214.16
624.32556,-2127.9
624.79999,-2141.85
625.27441,-2197.3
625.74884,-2345.66
626.22327,-2397.7
626.69769,-2183.32
627.17206,-2257.08
627.64648,-2381.87
628.12091,-2372.49
628.59534,-2502.61
629.06976,-2413.27
629.54419,-2331.84
630.01862,-2418.92
630.49304,-2288.44
630.96741,-2311.31
631.44183,-2293.26
631.91626,-2470.95
632.39069,-2420.02
632.86511,-2294.46
633.33954,-2426.48
633.81396,-2449.36
634.28839,-2493.49
634.76276,-2428.48
635.23718,-2388.33
635.71161,-2533.81
636.18604,-2559.88
636.66046,-2445.6
637.13489,-2338.58
637.60931,-2498.38
638.08374,-2510.36
638.55811,-2492.06
639.03253,-2541.88
639.50696,-2475.04
639.98138,-2667.85
640.45581,-2624.26
640.93024,-2490.01
641.40466,-2533.07
641.87909,-2451.77
642.35345,-2466.7
642.82788,-2636.59
643.30231,-2587.25
643.77673,-2481.06
644.25116,-2605
644.72559,-2667.37
645.20001,-2550.81
645.67444,-2531.26
646.1488,-2339.84
646.62323,-2360.43
647.09766,-2740.03
647.57208,-2716.98
648.04651,-2484.57
648.52094,-2620.22
648.99536,-2752.32
649.46979,-2565.1
649.94415,-2416.98
650.41858,-2457.33
650.89301,-2575.83
651.36743,-2533.62
651.84186,-2699.96
652.31628,-2541.06
652.79071,-2563.08
653.26514,-2769.93
653.7395,-2572.09
654.21393,-2356.43
654.68835,-2430.59
655.16278,-2536.16
655.63721,-2554.42
656.11163,-2498.77
656.58606,-2641.83
657.06049,-2731.58
657.53485,-2687.5
658.00928,-2689.91
658.4837,-2711.23
658.95813,-2481.49
659.43256,-2840.8
659.90698,-2665.57
660.38141,-2435.38
660.85583,-2620.21
661.3302,-2395.51
661.80463,-2660.1
662.27905,-2875.07
662.75348,-2654.86
663.22791,-2845.2
663.70233,-2775.34
664.17676,-2660.16
664.65118,-2782.78
665.12555,-2770.14
665.59998,-2692.25
666.0744,-2755.72
666.54883,-2697.74
667.02325,-2640.25
667.49768,-2843.29
667.97211,-2907.05
668.44653,-2701.87
668.9209,-2719.42
669.39532,-2750.04
669.86975,-2630.7
670.34418,-2680.17
670.8186,-2771.48
671.29303,-2706.99
671.76746,-2555.61
672.24188,-2621.32
672.71625,-2804.96
673.19067,-2809.82
673.6651,-2695.04
674.13953,-2647.71
674.61395,-2719.89
675.08838,-2776.34
675.56281,-2774.22
676.03723,-2776.63
676.5116,-2858.32
676.98602,-2730.65
677.46045,-2636.47
677.93488,-2777.11
678.4093,-2917.44
678.88373,-2840.92
679.35815,-2767.6
679.83258,-2742.2
680.30695,-2574.84
680.78137,-2694.33
681.2558,-2781.62
681.73022,-2641.13
682.20465,-2670.99
682.67908,-2652.01
683.1535,-2637.64
683.62793,-2827.13
684.10229,-2777.55
684.57672,-2786.92
685.05115,-2791.89
685.52557,-2770.7
686,-2767.79
686.47443,-2766.14
686.94885,-2794.86
687.42328,-2876
687.89764,-2772.66
688.37207,-2802.16
688.8465,-2820.41
689.32092,-2780.48
689.79535,-2764.91
690.26978,-2762.55
690.7442,-2757.57
691.21863,-2736.33
691.69299,-2835.9
692.16742,-2751.07
692.64185,-2691.74
693.11627,-2847.8
693.5907,-2728.92
694.06512,-2733.82
694.53955,-2702.25
695.01398,-2828.58
695.48834,-2886.47
695.96277,-2827.33
696.43719,-2820.06
696.91162,-2793.34
697.38605,-2700.39
697.86047,-2691.73
698.3349,-2811.23
698.80933,-2756.2
699.28369,-2784.21
699.75812,-2875.83
700.23254,-2805.18
700.70697,-2862.49
701.1814,-2787.96
701.65582,-2723.57
702.13025,-2868.97
702.60468,-2942.72
703.07904,-2760.9
703.55347,-2789.97
704.02789,-2734.66
704.50232,-2612.21
704.97675,-2847.32
705.45117,-2719.94
705.9256,-2752.17
706.40002,-2860.98
706.87439,-2705.72
707.34882,-2790.77
707.82324,-2831.71
708.29767,-2800.46
708.77209,-2818.46
709.24652,-2736.62
709.72095,-2628.52
710.19537,-2728.05
710.66974,-2801.84
711.14417,-2720.22
711.61859,-2904.58
712.09302,-2839.34
712.56744,-2657.53
713.04187,-2742.05
713.5163,-2782.25
713.99072,-2754.98
714.46509,-2677.96
714.93951,-2849.65
715.41394,-2807.66
715.88837,-2589.88
716.36279,-2753.33
716.83722,-2765.36
717.31165,-2642.25
717.78607,-2770.14
718.26044,-2917.22
718.73486,-2759.08
719.20929,-2766.03
719.68372,-2790.56
720.15814,-2705.01
720.63257,-2792.94
721.10699,-3037.22
721.58142,-2971.43
722.05579,-2726.87
722.53021,-2642.58
723.00464,-2672.54
723.47906,-2705.32
723.95349,-2776.59
724.42792,-2920.53
724.90234,-2839.21
725.37677,-2724.65
725.85114,-2732.02
726.32556,-2797.98
726.79999,-2847.47
727.27441,-2927.59
727.74884,-2921.26
728.22327,-2855.99
728.69769,-2855.61
729.17212,-2937.73
729.64648,-2906.14
730.12091,-2765.5
730.59534,-2691.11
731.06976,-2682.31
731.54419,-2787.75
732.01862,-2766.24
732.49304,-2893.85
732.96747,-2882.16
733.44183,-2870.17
733.91626,-2910.49
734.39069,-2603.26
734.86511,-2751.95
735.33954,-2957.38
735.81396,-2824.6
736.28839,-2769.7
736.76282,-2794.75
737.23718,-2862.73
737.71161,-2979.9
738.18604,-2868.36
738.66046,-2770.04
739.13489,-2967.82
739.60931,-2921.68
740.08374,-2740.55
740.55817,-2842.82
741.03253,-2857.19
741.50696,-2792.93
741.98138,-2851.84
742.45581,-2678.86
742.93024,-2753.33
743.40466,-2875.05
743.87909,-2778.82
744.35345,-2855.07
744.82788,-2762.84
745.30231,-2898.77
745.77673,-2774.01
746.25116,-2917.92
746.72559,-2891.03
747.20001,-2686.71
747.67444,-2741.39
748.1488,-2956.81
748.62323,-2929.98
749.09766,-2837.78
749.57208,-2825.67
750.04651,-2898.38
750.52094,-2902.53
750.99536,-2828.47
751.46979,-2963.92
751.94415,-2871.15
752.41858,-2835.26
752.89301,-2808.25
753.36743,-2907.05
753.84186,-2982.52
754.31628,-2886.02
754.79071,-2737.62
755.26514,-2775.81
755.7395,-2830.35
756.21393,-2761.2
756.68835,-2843.84
757.16278,-2914.84
757.63721,-2911.74
758.11163,-2945.2
758.58606,-2878.3
759.06049,-2758.07
759.53485,-2881.52
760.00928,-2820.28
760.4837,-2896.31
760.95813,-2908.98
761.43256,-2867.35
761.90698,-2928.71
762.38141,-2889.38
762.85583,-2861.56
763.3302,-2927.75
763.80463,-2845.84
764.27905,-2766.43
764.75348,-2718.04
765.22791,-2841.72
765.70233,-2911.36
766.17676,-2732.97
766.65118,-2634.16
767.12555,-2751.23
767.59998,-2579.22
768.0744,-2838.35
768.54883,-2848.36
769.02325,-2782.88
769.49768,-2902.3
769.97211,-2790.66
770.44653,-2920.16
770.9209,-3022.86
771.39532,-3017.42
771.86975,-2890.53
772.34418,-2854.68
772.8186,-2835.68
773.29303,-2916.65
773.76746,-2836.99
774.24188,-2672.48
774.71625,-2720.94
775.19067,-2796.24
775.6651,-2686.91
776.13953,-2750.08
776.61395,-2824.18
777.08838,-2747.26
777.56281,-2824.78
778.03723,-2769.42
778.5116,-2872.76
778.98602,-2858.6
779.46045,-2977.51
779.93488,-2860.01
780.4093,-2732.61
780.88373,-2842.72
781.35815,-2856.94
781.83258,-2764.14
782.30695,-2765.03
782.78137,-2799.92
783.2558,-2924.44
783.73022,-2862.27
784.20465,-2804.28
784.67908,-2988.51
785.1535,-2829.58
785.62793,-2832.84
786.10229,-2952.31
786.57672,-2904.8
787.05115,-2842.69
787.52557,-2950.53
788,-3008.69
788.47443,-2784.02
788.94885,-2731.1
789.42328,-3091.74
789.89764,-3038.88
790.37207,-2762.51
790.8465,-2878.41
791.32092,-2830.55
791.79535,-2961.39
792.26978,-3022.14
792.7442,-2984.1
793.21863,-2935.02
793.69299,-2883.62
794.16742,-2899.62
794.64185,-2955.55
795.11627,-3127.36
795.5907,-2962.25
796.06512,-2796.2
796.53955,-2933.21
797.01398,-2732.78
797.48834,-3000.97
797.96277,-2766.57
798.43719,-2582.07
798.91162,-2645.3
799.38605,-2780.04
799.86047,-2735.88
800.3349,-2646.98
800.80933,-2946
801.28369,-2919.72
801.75812,-2784.31
802.23254,-2996.22
802.70697,-2943.37
803.1814,-2717.18
803.65582,-2837.71
804.13025,-2897.26
804.60468,-2538.85
805.07904,-2665.21
805.55347,-2712.33
806.02789,-2747.99
806.50232,-2775.8
806.97675,-2742.68
807.45117,-2775.89
807.9256,-2832.98
808.40002,-2908.79
808.87439,-2851.99
809.34882,-2704.88
809.82324,-2692.79
810.29767,-2845.62
810.77209,-2992.49
811.24652,-2928.55
811.72095,-3064.48
812.19537,-2889.05
812.66974,-3023.93
813.14417,-2603.56
813.61859,-2197.14
814.09302,-1860.32
814.56744,-1229.22
815.04187,-874.17
815.5163,-911.384
815.99072,-1127.41
816.46509,-1503.16
816.93951,-2047.22
817.41394,-2578.14
817.88837,-2752.25
818.36279,-2805.31
818.83722,-2960.79
819.31165,-3015.01
819.78607,-3002.61
820.26044,-2969.55
820.73486,-2812.13
821.20929,-2770.26
821.68372,-2840.86
822.15814,-2929.24
822.63257,-2934.9
823.10699,-2751.23
823.58142,-2897.02
824.05579,-2942.24
824.53021,-2820.48
825.00464,-2754.54
825.47906,-2879.97
825.95349,-2872.5
826.42792,-2984.91
826.90234,-2894.62
827.37677,-2784.35
827.85114,-2888.15
828.32556,-2976.08
828.79999,-2796.25
829.27441,-2575.77
829.74884,-2608.19
830.22327,-2533.02
830.69769,-2511.28
831.17212,-2397.47
831.64648,-2646.29
832.12091,-2679.1
832.59534,-2789.42
833.06976,-2724.34
833.54419,-2671.38
834.01862,-2823.09
834.49304,-2805.72
834.96747,-2858.22
835.44183,-2893.51
835.91626,-2841.51
836.39069,-2945.92
836.86511,-3039.63
837.33954,-2822.05
837.81396,-2931.75
838.28839,-3165.37
838.76282,-2822.37
839.23718,-2787.39
839.71161,-2864.8
840.18604,-2885
840.66046,-2912.42
841.13489,-2979.37
841.60931,-3056.74
842.08374,-2962.56
842.55817,-2914.02
843.03253,-2816.38
843.50696,-2613.04
843.98138,-2397.51
844.45581,-2354.07
844.93024,-2036.31
845.40466,-1680.21
845.87909,-1611.01
846.35352,-1841.74
846.82788,-1916.46
847.30231,-2022.99
847.77673,-2409.57
848.25116,-2697.14
848.72559,-2746.52
849.20001,-2899.98
849.67444,-3068.92
850.14886,-3000.59
850.62323,-2950.17
851.09766,-2886.59
851.57208,-3023.85
852.04651,-2933.19
852.52094,-2886.73
852.99536,-2890.16
853.46979,-2967.11
853.94421,-2867.77
854.41858,-2762.41
854.89301,-2752.6
855.36743,-2516.81
855.84186,-2372.21
856.31628,-2607.98
856.79071,-2732.95
857.26514,-2639.02
857.73956,-2816.91
858.21393,-2986.24
858.68835,-2977.72
859.16278,-2842.93
859.63721,-2825.56
860.11163,-2811.63
860.58606,-2798.09
861.06049,-3133.08
861.53491,-3150.98
862.00928,-2907.8
862.4837,-2902.82
862.95813,-2850.98
863.43256,-2773.09
863.90698,-2698.67
864.38141,-2832.85
864.85583,-2934.94
865.3302,-2942.1
865.80463,-2985.83
866.27905,-2932.63
866.75348,-2830.09
867.22791,-2916.33
867.70233,-3041.13
868.17676,-2765.88
868.65118,-2779.65
869.12555,-3032.35
869.59998,-2900.67
870.0744,-2819.41
870.54883,-2689.3
871.02325,-2902.02
871.49768,-3067.77
871.97211,-2994.75
872.44653,-2964.5
872.9209,-2911.04
873.39532,-2896.25
873.86975,-2897.21
874.34418,-2915.22
874.8186,-2891.96
875.29303,-2859.66
875.76746,-2924.94
876.24188,-2833.73
876.71625,-2953.95
877.19067,-3007.74
877.6651,-2865.37
878.13953,-2752.56
878.61395,-2844.73
879.08838,-2896.67
879.56281,-2935.81
880.03723,-2821.69
880.5116,-2869.04
880.98602,-2783.8
881.46045,-2777.76
881.93488,-3047.7
882.4093,-2980.56
882.88373,-2971.3
883.35815,-2694.89
883.83258,-2821.85
884.30695,-2962.81
884.78137,-2951.25
885.2558,-2839.25
885.73022,-2805.81
886.20465,-2866.59
886.67908,-2792.08
887.1535,-2890.06
887.62793,-2971.84
888.10229,-2818.73
888.57672,-2777.17
889.05115,-2904.99
889.52557,-2829.64
890,-2901.62
890.47443,-2996.07
890.94885,-2784.62
891.42328,-2858.73
891.89764,-2879.77
892.37207,-2889.6
892.8465,-2957.66
893.32092,-2828.02
893.79535,-2864.32
894.26978,-2892.19
894.7442,-2881.81
895.21863,-2973.95
895.69299,-2911.25
896.16742,-2845.31
896.64185,-2905.52
897.11627,-2899.99
897.5907,-2927.8
898.06512,-2915.15
898.53955,-2931.33
899.01398,-2941.42
899.48834,-2854.2
899.96277,-2857.71
900.43719,-2932.67
900.91162,-2894.29
901.38605,-2917.03
901.86047,-2956.88
902.3349,-2947.32
902.80933,-2897.46
903.28369,-2881.52
903.75812,-2821.85
904.23254,-2895.49
904.70697,-2815.08
905.1814,-2952.8
905.65582,-2892.42
906.13025,-2927.13
906.60468,-2899.82
907.07904,-2802.05
907.55347,-3001.42
908.02789,-3010.67
908.50232,-2917.62
908.97675,-2871
909.45117,-2905.59
909.9256,-2988.26
910.40002,-2853.5
910.87439,-2893.61
911.34882,-3066.32
911.82324,-2951.54
912.29767,-2833.85
912.77209,-2902.64
913.24652,-2815.34
913.72095,-2680.23
914.19537,-2575.34
914.66974,-2346.81
915.14417,-2142.61
915.61859,-2206.96
916.09302,-2069.52
916.56744,-2334.07
917.04187,-2590.74
917.5163,-2725.88
917.99072,-2801.22
918.46509,-2730
918.93951,-2712.94
919.41394,-2777.07
919.88837,-2810.78
920.36279,-2836.13
920.83722,-2900.49
921.31165,-2921.97
921.78607,-2876.59
922.26044,-2786.35
922.73486,-2933.33
923.20929,-3021.54
923.68372,-2873.05
924.15814,-2853.08
924.63257,-2746.19
925.10699,-2751.9
925.58142,-2720.99
926.05579,-2528.92
926.53021,-2674.43
927.00464,-2892.03
927.47906,-2831.49
927.95349,-2810.21
928.42792,-2808.67
928.90234,-2857.5
929.37677,-2937.15
929.85114,-2811.17
930.32556,-2994.74
930.79999,-2847.17
931.27441,-2801.57
931.74884,-2887.92
932.22327,-2896.31
932.69769,-2861.2
933.17212,-2874.81
933.64648,-2874.95
934.12091,-2817.47
934.59534,-2808.99
935.06976,-2871.69
935.54419,-2956.56
936.01862,-2918.64
936.49304,-2831.05
936.96747,-2826.14
937.44183,-2849.89
937.91626,-2965.83
938.39069,-3071.6
938.86511,-2929.07
939.33954,-2856.44
939.81396,-2794.81
940.28839,-2874.71
940.76282,-2947.42
941.23718,-2941.31
941.71161,-3102.59
942.18604,-2944.22
942.66046,-2792.24
943.13489,-2791.26
943.60931,-2593.94
944.08374,-2783.35
944.55817,-2897.92
945.03253,-2823.13
945.50696,-2736.96
945.98138,-2842.12
946.45581,-3038.62
946.93024,-2928.43
947.40466,-2780.2
947.87909,-2862.1
948.35352,-2972.77
948.82788,-2914.75
949.30231,-2878.46
949.77673,-3044.28
950.25116,-2957.28
950.72559,-2776.26
951.20001,-2822.99
951.67444,-2877.37
952.14886,-2885.79
952.62323,-2887.37
953.09766,-2910.58
953.57208,-2929.31
954.04651,-2864.31
954.52094,-2861.4
954.99536,-2817.39
955.46979,-2960.57
955.94421,-3033.87
956.41858,-2771
956.89301,-2923.54
957.36743,-2918.64
957.84186,-2774.31
958.31628,-2649.65
958.79071,-2904.18
959.26514,-3011.21
959.73956,-2847.1
960.21393,-2915.86
960.68835,-2975.26
961.16278,-2880.55
961.63721,-2948.51
962.11163,-2886.06
962.58606,-2814.51
963.06049,-2838.48
963.53491,-2730.5
964.00928,-2788.39
964.4837,-3019.31
964.95813,-2955.31
965.43256,-2926.99
965.90698,-2810.88
966.38141,-2902.62
966.85583,-2933.22
967.33026,-2893.08
967.80463,-2719.18
968.27905,-2501.86
968.75348,-2518.44
969.22791,-2525.39
969.70233,-2589.9
970.17676,-2692.26
970.65118,-2845.89
971.12561,-2770.72
971.59998,-2739.4
972.0744,-2967.01
972.54883,-2852.9
973.02325,-2875.31
973.49768,-2813.22
973.97211,-2828.33
974.44653,-3000.82
974.92096,-2968.84
975.39532,-2873.06
975.86975,-2901.22
976.34418,-2701.75
976.8186,-2685.76
977.29303,-2984.61
977.76746,-2921.16
978.24188,-2981.86
978.71631,-2821.91
979.19067,-2846.73
979.6651,-3080.89
980.13953,-3130.85
980.61395,-2961.73
981.08838,-2915.13
981.56281,-2864.59
982.03723,-2812.74
982.51166,-2873.25
982.98602,-2735.46
983.46045,-2604.25
983.93488,-2806.74
984.4093,-2796.05
984.88373,-2866.17
985.35815,-2843.25
985.83258,-2715.21
986.30701,-2806.07
986.78137,-2903
987.2558,-2881.47
987.73022,-2851.23
988.20465,-3016.16
988.67908,-3031.22
989.1535,-2810.44
989.62793,-2856.91
990.10229,-2913.65
990.57672,-2746.76
991.05115,-2794.4
991.52557,-2894.57
992,-2887.16
992.47443,-2946.06
992.94885,-2884.94
993.42328,-2967.18
993.89764,-2852.45
994.37207,-2792.48
994.8465,-2915.2
995.32092,-2822.79
995.79535,-2701.06
996.26978,-2977.38
996.7442,-3066.06
997.21863,-2746.92
997.69299,-2719.66
998.16742,-2981.72
998.64185,-3090.37
999.11627,-2905.43
999.5907,-2965.05
1000.0651,-2803.3
1000.5396,-2885.98
1001.014,-2846.12
1001.4883,-2936.74
1001.9628,-2838.99
1002.4372,-2699.41
1002.9116,-2894
1003.386,-2871.06
1003.8605,-3005.99
1004.3349,-2894.74
1004.8093,-2756.25
1005.2837,-2876.88
1005.7581,-2767.78
1006.2325,-2958.97
1006.707,-2966.15
1007.1814,-2771.41
1007.6558,-2902.26
1008.1302,-3001.79
1008.6047,-2927.63
1009.079,-2799.01
1009.5535,-2765.89
1010.0279,-2826.37
1010.5023,-2830.08
1010.9767,-2893.91
1011.4512,-2856.61
1011.9256,-2794
1012.4,-3036.87
1012.8744,-3063.11
1013.3488,-2924.25
1013.8232,-2911.92
1014.2977,-2911.05
1014.7721,-3003.39
1015.2465,-2940.94
1015.7209,-2517.78
1016.1954,-2238.32
1016.6697,-2220.12
1017.1442,-2032.55
1017.6186,-1827.35
1018.093,-2042.1
1018.5674,-2474.24
1019.0419,-2704.85
1019.5163,-2633.24
1019.9907,-2844.91
1020.4651,-3059.75
1020.9395,-2927.14
1021.4139,-3002.02
1021.8884,-2885.05
1022.3628,-2851.88
1022.8372,-2957.55
1023.3116,-2955.81
1023.7861,-2961.61
1024.2605,-3004
1024.7349,-3032.84
1025.2094,-2935.63
1025.6837,-2857.97
1026.1581,-2957.26
1026.6326,-2892.91
1027.1069,-2965.82
1027.5814,-3054.58
1028.0558,-2911.96
1028.5303,-2974.01
1029.0046,-2959.52
1029.4791,-2665.66
1029.9535,-2715.3
1030.4279,-2886.43
1030.9023,-2932.93
1031.3767,-3028.68
1031.8512,-3004.43
1032.3256,-2870.16
1032.8,-2992.26
1033.2744,-3095.21
1033.7488,-2802.45
1034.2233,-2965.36
1034.6976,-2853.92
1035.1721,-2840.52
1035.6465,-2800.73
1036.121,-2794.31
1036.5953,-2882.32
1037.0698,-2871.83
1037.5442,-2859.41
1038.0186,-2823.95
1038.493,-2876.13
1038.9674,-2942.66
1039.4419,-2885.84
1039.9163,-2830.31
1040.3907,-2748.91
1040.8651,-2743.63
1041.3395,-2932.83
1041.814,-2741.48
1042.2883,-2696.1
1042.7628,-2752.48
1043.2372,-2734.76
1043.7117,-2798.79
1044.186,-2919.93
1044.6605,-2949.67
1045.1349,-3021.75
1045.6093,-3018.9
1046.0837,-2891.49
1046.5581,-3070.97
1047.0326,-3123.5
1047.507,-2929.25
1047.9814,-2939.02
1048.4558,-2850.05
1048.9302,-2899.02
1049.4047,-2827.86
1049.879,-2985.54
1050.3535,-3000.37
1050.8279,-2813.55
1051.3024,-2898.19
1051.7767,-2987.8
1052.2512,-2900.58
1052.7256,-2903.59
1053.2,-2992.33
1053.6744,-3094.17
1054.1488,-2856.78
1054.6233,-2871.04
1055.0977,-2965.52
1055.5721,-2895.25
1056.0465,-2827.65
1056.5209,-2942.2
1056.9954,-2961.48
1057.4697,-2880.84
1057.9442,-2822.23
1058.4186,-2909.4
1058.8931,-2982.34
1059.3674,-2918
1059.8419,-2891.33
1060.3163,-2920.25
1060.7906,-3037.23
1061.2651,-3017.86
1061.7395,-2894.29
1062.214,-2957.65
1062.6884,-2826.5
1063.1628,-2794.88
1063.6372,-2806.13
1064.1116,-2825.42
1064.5861,-2850.72
1065.0604,-3025.41
1065.5349,-2910.61
1066.0093,-2801.02
1066.4838,-2947.92
1066.9581,-3039.35
1067.4326,-3039.66
1067.907,-2702.92
1068.3813,-2826.85
1068.8558,-2895.02
1069.3302,-2786.43
1069.8047,-3010.93
1070.2791,-2917.37
1070.7535,-2768.54
1071.2279,-2934.93
1071.7023,-2871.63
1072.1768,-2781.72
1072.6511,-2805.27
1073.1256,-2924.64
1073.6,-2900.57
1074.0745,-2695.86
1074.5488,-2839.3
1075.0233,-3039.12
1075.4977,-2940.28
1075.972,-3101.02
1076.4465,-2963.86
1076.9209,-2616.68
1077.3954,-2951.12
1077.8698,-2924.96
1078.3442,-2795.43
1078.8186,-2950.37
1079.293,-2829.18
1079.7675,-3033.46
1080.2418,-3067.68
1080.7163,-2957.34
1081.1907,-3032.52
1081.6652,-2856.45
1082.1395,-2894.77
1082.614,-3007.86
1083.0884,-3032.97
1083.5627,-2895.02
1084.0372,-2801
1084.5116,-2763.35
1084.9861,-2957.3
1085.4604,-3058.29
1085.9349,-2896.64
1086.4093,-2831.41
1086.8837,-2918.8
1087.3582,-2889.7
1087.8325,-2871.72
1088.307,-2922.19
1088.7814,-2875.65
1089.2559,-2730.29
1089.7302,-2660.65
1090.2047,-2957.02
1090.6791,-2872.77
1091.1534,-3023.62
1091.6279,-2884.99
1092.1023,-2803.08
1092.5768,-2874.07
1093.0511,-2959.77
1093.5256,-2906.75
1094,-2967.24
1094.4744,-3036.79
1094.9489,-2874.76
1095.4232,-2959.65
1095.8977,-3017
1096.3721,-2977.29
1096.8466,-2814.42
1097.3209,-2892.98
1097.7954,-2774.15
1098.2698,-2827
1098.7441,-2977.51
1099.2186,-2823.22
1099.693,-2864.36
1100.1675,-3001.54
1100.6418,-2889.32
1101.1163,-2914.78
1101.5907,-2939.86
1102.0651,-2796.84
1102.5396,-2862.18
1103.0139,-2840.83
1103.4884,-2926.71
1103.9628,-2946.65
1104.4373,-2888.81
1104.9116,-2890.92
1105.3861,-2859.05
1105.8605,-2869.5
1106.3348,-2909.11
1106.8093,-2943.12
1107.2837,-2832.28
1107.7582,-2752.63
1108.2325,-2835.99
1108.707,-2954.86
1109.1814,-2988.37
1109.6558,-2837.71
1110.1302,-2832.09
1110.6046,-2977.76
1111.0791,-2822.23
1111.5535,-2928.12
1112.028,-2863
1112.5023,-2830.97
1112.9767,-2919.56
1113.4512,-2959.36
1113.9255,-2939.61
1114.4,-2969.65
1114.8744,-2891.33
1115.3489,-2742.57
1115.8232,-2917.52
1116.2977,-3008.45
1116.7721,-2922.41
1117.2465,-2946.89
1117.7209,-2787.28
1118.1953,-2930.02
1118.6698,-2849.17
1119.1442,-2803.54
1119.6187,-2961.8
1120.093,-2962.34
1120.5674,-2905.89
1121.0419,-2946.59
1121.5162,-2890.05
1121.9907,-2868.91
1122.4651,-2879.46
1122.9396,-2810.83
1123.4139,-2906.37
1123.8884,-2961.99
1124.3628,-2922.13
1124.8372,-3003.3
1125.3116,-2903.47
1125.786,-2996.32
1126.2605,-2907.46
1126.7349,-2777.1
1127.2094,-2789.01
1127.6837,-2890.23
1128.1581,-3001.42
1128.6326,-2997.68
1129.1069,-2986.59
1129.5814,-3000.62
1130.0558,-2897.43
1130.5303,-2945.3
1131.0046,-3007.09
1131.4791,-2990.61
1131.9535,-2965.86
1132.4279,-2928.37
1132.9023,-2957.46
1133.3767,-2983.32
1133.8512,-2889.6
1134.3256,-2827.89
1134.8,-2967.69
1135.2744,-3122.91
1135.7488,-3072
1136.2233,-2895.12
1136.6976,-2878.95
1137.1721,-2993.48
1137.6465,-2930.74
1138.121,-2940.23
1138.5953,-3086.77
1139.0698,-3047.23
1139.5442,-2908.31
1140.0186,-2926.73
1140.493,-2926.5
1140.9674,-2884.68
1141.4419,-2901.71
1141.9163,-2938.81
1142.3907,-2851.04
1142.8651,-2956.3
1143.3395,-3095.07
1143.814,-2974.18
1144.2883,-2933.71
1144.7628,-2979.76
1145.2372,-2951.11
1145.7117,-2922.59
1146.186,-3036.1
1146.6605,-3130.72
1147.1349,-2965.89
1147.6093,-2801.02
1148.0837,-2775.61
1148.5581,-2822.87
1149.0326,-2918.14
1149.507,-3006.16
1149.9814,-2961.54
1150.4558,-2894.05
1150.9302,-3013.82
1151.4047,-2958.32
1151.879,-2699.3
1152.3535,-2891.27
1152.8279,-3061.33
1153.3024,-2799.56
1153.7767,-2942.5
1154.2512,-2916.51
1154.7256,-2919.15
1155.2,-3029.31
1155.6744,-2903.98
1156.1488,-2954.03
1156.6233,-3122.72
1157.0977,-2874.04
1157.5721,-2816.63
1158.0465,-2929.64
1158.5209,-2885.41
1158.9954,-3017.99
1159.4697,-3101.59
1159.9442,-2933.56
1160.4186,-3145.42
1160.8931,-3059.14
1161.3674,-2947.35
1161.8419,-2976.49
1162.3163,-2980.23
1162.7906,-2982.93
1163.2651,-3006.71
1163.7395,-3034.4
1164.214,-2967.24
1164.6884,-2887.64
1165.1628,-2881.9
1165.6372,-2858.14
1166.1116,-2895.94
1166.5861,-2950.86
1167.0604,-2978.1
1167.5349,-2949.45
1168.0093,-2919.74
1168.4838,-3052.49
1168.9581,-3035.73
1169.4326,-2846.81
1169.907,-2951.29
1170.3813,-2942.91
1170.8558,-2827.44
1171.3302,-2916.69
1171.8047,-3014.17
1172.2791,-2930.37
1172.7535,-2872.99
1173.2279,-2946.64
1173.7023,-2984.6
1174.1768,-2974.55
1174.6511,-3041.45
1175.1256,-3119.69
1175.6,-3034.4
1176.0745,-2926.58
1176.5488,-2974.85
1177.0233,-2926.57
1177.4977,-2989.34
1177.972,-2850.67
1178.4465,-3008.55
1178.9209,-3021.98
1179.3954,-2868.63
1179.8698,-3137.53
1180.3442,-3067.29
1180.8186,-2918.69
1181.293,-2887.13
1181.7675,-2781.48
1182.2418,-2971
1182.7163,-2984.66
1183.1907,-2835.24
1183.6652,-2998.03
1184.1395,-3072.2
1184.614,-2856.24
1185.0884,-3004.61
1185.5627,-2943.32
1186.0372,-3005.01
1186.5116,-3027.96
1186.9861,-2916.78
1187.4604,-3080.57
1187.9349,-3083.65
1188.4093,-2881.59
1188.8837,-2880.6
1189.3582,-2958.54
1189.8325,-2855.55
1190.307,-2931.98
1190.7814,-2991.54
1191.2559,-2818.14
1191.7302,-2913.68
1192.2047,-2873.12
1192.6791,-2818.38
1193.1534,-3045.51
1193.6279,-2947.15
1194.1023,-2897.41
1194.5768,-2977.91
1195.0511,-2991.94
1195.5256,-3099.1
1196,-2978.15
1196.4744,-3036.26
1196.9489,-2990.23
1197.4232,-2894.83
1197.8977,-2974.54
1198.3721,-2946.94
1198.8466,-2766.56
1199.3209,-2797.06
1199.7954,-3024.88
1200.2698,-3047.39
1200.7441,-2907.22
1201.2186,-2863.38
1201.693,-2984.95
1202.1675,-2818.17
1202.6418,-2826.8
1203.1163,-3190.33
1203.5907,-2912.65
1204.0651,-2946.11
1204.5396,-3047.32
1205.0139,-2895.83
1205.4884,-3020.34
1205.9628,-3033.25
1206.4373,-3141.23
1206.9116,-2954.68
1207.3861,-2867.5
1207.8605,-2991.85
1208.3348,-2914.58
1208.8093,-2965.61
1209.2837,-2982.86
1209.7582,-2942.38
1210.2325,-2904.74
1210.707,-2846.5
1211.1814,-2891.36
1211.6558,-3083.66
1212.1302,-3158.48
1212.6046,-2864.13
1213.0791,-2998.4
1213.5535,-2743.03
1214.028,-2930.56
1214.5023,-3103.96
1214.9768,-2922.55
1215.4512,-2839.66
1215.9255,-2930.49
1216.4,-3119.33
1216.8744,-2980.78
1217.3489,-2934.8
1217.8232,-2948.93
1218.2977,-2901.76
1218.7721,-2997.39
1219.2465,-2890.06
1219.7209,-2838.06
1220.1953,-3056.8
1220.6698,-3135.48
1221.1442,-3042.52
1221.6187,-3124.29
1222.093,-3047.87
1222.5675,-3091.24
1223.0419,-3186.15
1223.5162,-2947.78
1223.9907,-2966.76
1224.4651,-3053.2
1224.9396,-2987.97
1225.4139,-2873.22
1225.8884,-2856.5
1226.3628,-2925.53
1226.8372,-2842.81
1227.3116,-2914.92
1227.786,-2971.87
1228.2605,-3033.36
1228.7349,-2758.44
1229.2094,-3087.61
1229.6837,-3116.61
1230.1581,-2955.2
1230.6326,-3105.63
1231.1069,-3066.07
1231.5814,-2940.98
1232.0558,-2875.22
1232.5303,-3066.16
1233.0046,-3015.09
1233.4791,-2967.81
1233.9535,-3043.93
1234.4279,-2862.99
1234.9023,-3106.75
1235.3767,-2977.5
1235.8512,-2878.73
1236.3256,-3095.25
1236.8,-3102.12
1237.2744,-2957.38
1237.7488,-2818.92
1238.2233,-2886.54
1238.6976,-2982.29
1239.1721,-2938.12
1239.6465,-3038.85
1240.121,-2985.64
1240.5953,-3032.97
1241.0698,-2947.4
1241.5442,-2868.57
1242.0186,-2980.99
1242.493,-2887.29
1242.9674,-2991.64
1243.4419,-3000.39
1243.9163,-3107.45
1244.3907,-3030.56
1244.8651,-2913.99
1245.3395,-3023.46
1245.814,-3065.61
1246.2883,-2966.92
1246.7628,-2957.81
1247.2372,-2940.49
1247.7117,-2907.73
1248.186,-2946.67
1248.6605,-2770.11
1249.1349,-2833.17
1249.6093,-2882.54
1250.0837,-2847.06
1250.5581,-2863.88
1251.0326,-2855.16
1251.507,-3007.28
1251.9814,-2933.23
1252.4558,-2959.62
1252.9302,-3001.49
1253.4047,-2913.17
1253.879,-2909.11
1254.3535,-3020.09
1254.8279,-3021.78
1255.3024,-2833.96
1255.7767,-3002
1256.2512,-2780.4
1256.7256,-2832.28
1257.2,-2824
1257.6744,-2973.78
1258.1488,-3016.92
1258.6233,-2908.17
1259.0977,-3109.68
1259.5721,-2970.09
1260.0465,-3058.95
1260.5209,-3074.14
1260.9954,-2994.35
1261.4697,-3051.43
1261.9442,-2891.14
1262.4186,-2901.14
1262.8931,-2990.09
1263.3674,-2823.63
1263.8419,-3009
1264.3163,-3095.26
1264.7906,-3058.52
1265.2651,-2999.58
1265.7395,-2948.41
1266.214,-2957.69
1266.6884,-3082.37
1267.1628,-2991.52
1267.6372,-3123.35
1268.1116,-3091.91
1268.5861,-2934.26
1269.0604,-3074.71
1269.5349,-3003.02
1270.0093,-2902.32
1270.4838,-3050.2
1270.9581,-3083.57
1271.4326,-3009.33
1271.907,-2908.2
1272.3813,-2914.18
1272.8558,-3174.85
1273.3302,-3024.2
1273.8047,-2913.16
1274.2791,-3063.73
1274.7535,-2942.14
1275.2279,-2842.79
1275.7023,-2881.09
1276.1768,-2948.06
1276.6511,-2913.73
1277.1256,-3012.01
1277.6,-3160.63
1278.0745,-2952.92
1278.5488,-2990.36
1279.0233,-3033.35
1279.4977,-2856.06
1279.972,-2799.25
1280.4465,-2889.08
1280.9209,-3005.68
1281.3954,-2842.18
1281.8698,-2782.04
1282.3442,-3033.8
1282.8186,-3084.03
1283.293,-3020.32
1283.7675,-3057.75
1284.2418,-2868.47
1284.7163,-2757.08
1285.1907,-2889.1
1285.6652,-2837.04
1286.1395,-2982.27
1286.614,-3024.19
1287.0884,-2872.37
1287.5627,-3173.26
1288.0372,-2975.59
1288.5116,-3090.5
1288.9861,-3046.04
1289.4604,-2877.82
1289.9349,-2986.3
1290.4093,-2970.39
1290.8837,-2962.08
1291.3582,-2988.11
1291.8325,-2972.87
1292.307,-2994.93
1292.7814,-3125.55
1293.2559,-3139.13
1293.7302,-2991.64
1294.2047,-2879.32
1294.6791,-2807.06
1295.1534,-2928.54
1295.6279,-2995.04
1296.1023,-2846.42
1296.5768,-2958.96
1297.0511,-2908.85
1297.5256,-2911.54
1298,-3067.59
1298.4744,-2957.46
1298.9489,-3048.03
1299.4232,-2925.33
1299.8977,-2886
1300.3721,-3081.35
1300.8466,-3032.09
1301.3209,-2958.59
1301.7954,-2939.89
1302.2698,-2967.19
1302.7441,-3030.55
1303.2186,-2917.92
1303.693,-3041.65
1304.1675,-2919.67
1304.6418,-2876.61
1305.1163,-2964.74
1305.5907,-2900.47
1306.0651,-2937.17
1306.5396,-2900.89
1307.0139,-2794.2
1307.4884,-2816.06
1307.9628,-2957.42
1308.4373,-2994.63
1308.9116,-2911.48
1309.3861,-2837.24
1309.8605,-2935
1310.3348,-2856.88
1310.8093,-2888.04
1311.2837,-2976.33
1311.7582,-2900.59
1312.2325,-2938.99
1312.707,-2883.8
1313.1814,-2878.54
1313.6558,-3006.3
1314.1302,-2986.31
1314.6046,-3003.43
1315.0791,-2903.24
1315.5535,-2877.7
1316.028,-2920.87
1316.5023,-2989.8
1316.9768,-2941.87
1317.4512,-2887.99
1317.9255,-2907.88
1318.4,-2906.17
1318.8744,-2874.78
1319.3489,-2829.76
1319.8232,-2864.17
1320.2977,-2897.5
1320.7721,-2918.16
1321.2465,-2922.32
1321.7209,-2819.3
1322.1953,-2840.08
1322.6698,-2759.18
1323.1442,-2908.51
1323.6187,-2958.05
1324.093,-2765.28
1324.5675,-2919.6
1325.0419,-2930.47
1325.5162,-2979.41
1325.9907,-2854.9
1326.4651,-2835.64
1326.9396,-2997.09
1327.4139,-2938.79
1327.8884,-2791.45
1328.3628,-2844.49
1328.8372,-2824.63
1329.3116,-2696.11
1329.786,-2863.62
1330.2605,-2855.47
1330.7349,-2852.88
1331.2094,-2937.39
1331.6837,-2739.63
1332.1582,-2884.59
1332.6326,-2892.59
1333.1069,-2882.99
1333.5814,-2771.91
1334.0558,-2656.69
1334.5303,-2678.48
1335.0046,-2845.64
1335.4791,-2912.47
1335.9535,-2835.09
1336.4279,-2789.36
1336.9023,-2821.77
1337.3767,-2900.25
1337.8512,-2883.62
1338.3256,-2748.91
1338.8,-2860.38
1339.2744,-2647.74
1339.7489,-2766.94
1340.2233,-2849.18
1340.6976,-2798.73
1341.1721,-2759.29
1341.6465,-2731.92
1342.121,-2806.92
1342.5953,-2869.41
1343.0698,-2834.02
1343.5442,-2784.33
1344.0186,-2758.34
1344.493,-2751.02
1344.9674,-2695.98
1345.4419,-2760.78
1345.9163,-2932.54
1346.3907,-2890
1346.8651,-2647.86
1347.3396,-2722.52
1347.814,-2920.8
1348.2883,-2694.42
1348.7628,-2751.09
1349.2372,-2797.04
1349.7117,-2653.39
1350.186,-2774.79
1350.6605,-2969.74
1351.1349,-2809.78
1351.6093,-2691.01
1352.0837,-2833.81
1352.5581,-2844.41
1353.0326,-2855.75
1353.507,-2884.11
1353.9814,-3085.14
1354.4558,-2841.31
1354.9302,-2639.83
1355.4047,-2751.72
1355.879,-2688.29
1356.3535,-2738.16
1356.8279,-2847.15
1357.3024,-2817.79
1357.7767,-2794.77
1358.2512,-2897.34
1358.7256,-2749.07
1359.2,-2670.98
1359.6744,-2821.03
1360.1488,-2704.46
1360.6233,-2830.15
1361.0977,-2861.39
1361.5721,-2857.06
1362.0465,-2737.19
1362.5209,-2880.43
1362.9954,-2724.41
1363.4697,-2806.14
1363.9442,-2875.73
1364.4186,-2798.07
1364.8931,-2765.72
1365.3674,-2897.14
1365.8419,-2837.78
1366.3163,-2787.1
1366.7906,-2768.93
1367.2651,-2738.95
1367.7395,-2879.23
1368.214,-2857.02
1368.6884,-2919.91
1369.1628,-2762.32
1369.6372,-2865.81
1370.1116,-2710.24
1370.5861,-2861.93
1371.0604,-2939.49
1371.5349,-2750.72
1372.0093,-2751.24
1372.4838,-2754.99
1372.9581,-2786.47
1373.4326,-2841.76
1373.907,-2714.96
1374.3813,-2762.13
1374.8558,-2911.06
1375.3302,-2901.13
1375.8047,-2924.77
1376.2791,-2702.42
1376.7535,-2718.2
1377.2279,-2876.07
1377.7023,-2699.71
1378.1768,-2756.85
1378.6511,-2873.33
1379.1256,-2840.3
1379.6,-2793.04
1380.0745,-2843.27
1380.5488,-2799.68
1381.0233,-2772.58
1381.4977,-2792.75
1381.972,-2849.69
1382.4465,-2913.18
1382.9209,-2835.38
1383.3954,-2773.09
1383.8698,-2865.43
1384.3442,-2934.22
1384.8186,-2932.26
1385.293,-2776.68
1385.7675,-2771.62
1386.2418,-2734.79
1386.7163,-2680.24
1387.1907,-2961.83
1387.6652,-2996.58
1388.1395,-2846.73
1388.614,-2797.24
1389.0884,-2796.39
1389.5627,-2957.92
1390.0372,-2930.91
1390.5116,-2842.21
1390.9861,-3016.32
1391.4604,-2780.76
1391.9349,-2609.66
1392.4093,-2935.46
1392.8837,-2770.33
1393.3582,-2806.35
1393.8325,-2847.06
1394.307,-2868.22
1394.7814,-3036.64
1395.2559,-2871.15
1395.7302,-2812.92
1396.2047,-2967.58
1396.6791,-2842.3
1397.1534,-2784.95
1397.6279,-2801.4
1398.1023,-2636.36
1398.5768,-2678.03
1399.0511,-2810.04
1399.5256,-2730.25
1400,-2864.8
