Date and Time:                Mon Jan 17 22:25:08.000 2022
Software Version:             4.31.30023.0
Temperature (C):              -50
Model:                        DU420_BVF
Data Type:                    Counts (Bg Corrected)
Acquisition Mode:             Accumulate
Trigger Mode:                 Internal
Exposure Time (secs):         0.09999
Accumulate Cycle Time (secs): 0.09999
Frequency (Hz):               10.001
Number of Accumulations:      1000
Readout Mode:                 Full Vertical Binning
Horizontal binning:           1
Extended Dynamic Range:       off
Horizontally flipped:         false
Vertical Shift Speed (usecs): 8.25
Pixel Readout Time (usecs):   30.303
Serial Number:                22942
Pre-Amplifier Gain:           1.000000
Spurious Noise Filter Mode:   No Filter
Photon counted:               false
Data Averaging Filter Mode:   No Filter
KY328i:
Serial Number:                
Wavelength (nm):              889.526
Grating Groove Density (l/mm):150.012
Grating Blaze:                500nm
Output Flipper Port:          Direct
Filter:                       6-785 LP



380,-2764.41
380.4744,-2722.4
380.94882,-2815.64
381.42325,-2831.52
381.89767,-2807.28
382.37207,-2790.76
382.8465,-2737.94
383.32092,-2794.43
383.79535,-2881.43
384.26974,-2718.98
384.74417,-2732.4
385.2186,-2852.95
385.69302,-2897.31
386.16742,-2944.21
386.64185,-2697.16
387.11627,-2671.2
387.5907,-2714.16
388.06509,-2843.93
388.53952,-2734.17
389.01395,-2564.65
389.48837,-2538.18
389.96277,-2609.77
390.43719,-2730.71
390.91162,-2759.08
391.38605,-2763.05
391.86044,-2736.97
392.33487,-2732.63
392.8093,-2843.36
393.28372,-2637.95
393.75812,-2666.13
394.23254,-2739.38
394.70697,-2662.73
395.1814,-2621.33
395.65579,-2577.6
396.13022,-2520.74
396.60464,-2487.61
397.07907,-2576.06
397.55347,-2647.08
398.02789,-2539.41
398.50232,-2618.91
398.97675,-2663.65
399.45114,-2637.15
399.92557,-2653.51
400.39999,-2622.85
400.87442,-2595.12
401.34882,-2663.17
401.82324,-2626.17
402.29767,-2596.72
402.77209,-2530.89
403.24649,-2571.79
403.72092,-2657.9
404.19534,-2582.39
404.66977,-2673.98
405.14417,-2417.6
405.61859,-2702.59
406.09302,-2581.74
406.56744,-2243.56
407.04184,1745.76
407.51627,14296.5
407.99069,33323.6
408.46512,50874.2
408.93951,61133
409.41394,64155.1
409.88837,61641.9
410.36279,49559
410.83719,28636.5
411.31161,10813
411.78604,1618.53
412.26047,-1567.19
412.73486,-2384.47
413.20929,-2545.7
413.68372,-2543.14
414.15814,-2575.91
414.63254,-2583.6
415.10696,-2683.69
415.58139,-2832.3
416.05582,-2669.37
416.53021,-2696.38
417.00464,-2820.75
417.47906,-2726.13
417.95349,-2770.03
418.42789,-2806.84
418.90231,-2716.39
419.37674,-2760.49
419.85117,-2678.87
420.32556,-2700.77
420.79999,-2673.3
421.27441,-2630.33
421.74884,-2792.25
422.22324,-2639.06
422.69766,-2611.82
423.17209,-2850.28
423.64651,-2601.87
424.12091,-2610.7
424.59534,-2696.49
425.06976,-2775.11
425.54419,-2827.62
426.01859,-2760.61
426.49301,-2747.25
426.96744,-2683.85
427.44186,-2677.68
427.91626,-2852.84
428.39069,-2935.81
428.86511,-2700.97
429.33954,-2670.12
429.81393,-2744.97
430.28836,-2822.99
430.76279,-2889.08
431.23721,-2694.74
431.71161,-2746.81
432.18604,-2917.36
432.66046,-2810.17
433.13489,-2788.05
433.60928,-2823.99
434.08371,-2828.97
434.55814,-2717.88
435.03256,-2711.16
435.50696,-2704.67
435.98138,-2628.39
436.45581,-2659.08
436.93024,-2930.93
437.40463,-2793.19
437.87906,-2594.07
438.35349,-2752.05
438.82791,-2851.46
439.30231,-2628.86
439.77673,-2428.77
440.25116,-2544.08
440.72559,-2605.45
441.19998,-2739.36
441.67441,-2758.17
442.14883,-2598.24
442.62326,-2573.94
443.09766,-2723.99
443.57208,-2615.86
444.04651,-2401.33
444.52094,-2516.38
444.99533,-2654.95
445.46976,-2630.02
445.94418,-2566.57
446.41861,-2630.23
446.89301,-2772.78
447.36743,-2587.86
447.84186,-2747.81
448.31628,-2735.14
448.79068,-2530.63
449.26511,-2781.71
449.73953,-2728.75
450.21396,-2542.4
450.68835,-2715.64
451.16278,-2603.63
451.63721,-2779
452.11163,-2828.46
452.58603,-2701.78
453.06046,-2902.41
453.53488,-2745.98
454.00931,-2483.16
454.4837,-2682.06
454.95813,-2753.56
455.43256,-2673.9
455.90698,-2636.47
456.38138,-2600.56
456.8558,-2661.7
457.33023,-2827.58
457.80466,-2838.22
458.27905,-2705.33
458.75348,-2679.01
459.22791,-2609.88
459.70233,-2638.47
460.17673,-2710.57
460.65115,-2658.69
461.12558,-2810.64
461.60001,-2700.21
462.0744,-2573.29
462.54883,-2714.99
463.02325,-2775.52
463.49768,-2737.75
463.97208,-2661.85
464.4465,-2649.25
464.92093,-2761.36
465.39536,-2764.99
465.86975,-2643.99
466.34418,-2642.64
466.8186,-2668.81
467.29303,-2644.45
467.76743,-2719
468.24185,-2763.19
468.71628,-2628.31
469.1907,-2582.06
469.6651,-2627.15
470.13953,-2662.38
470.61395,-2689.6
471.08838,-2669.91
471.56277,-2552.37
472.0372,-2762.57
472.51163,-2650.87
472.98605,-2561.75
473.46045,-2770.47
473.93488,-2726.61
474.4093,-2550.64
474.88373,-2660.15
475.35812,-2690.74
475.83255,-2618.33
476.30698,-2668.78
476.7814,-2600.61
477.2558,-2586.24
477.73022,-2641.23
478.20465,-2665.21
478.67908,-2606.69
479.15347,-2629.87
479.6279,-2543.97
480.10233,-2546.15
480.57675,-2565.1
481.05115,-2595.39
481.52557,-2645.1
482,-2548.59
482.47443,-2544.78
482.94882,-2663.89
483.42325,-2646.58
483.89767,-2565.43
484.3721,-2517.22
484.8465,-2502.61
485.32092,-2607.01
485.79535,-2629.61
486.26978,-2602.91
486.74417,-2559.25
487.2186,-2480.75
487.69302,-2409.83
488.16745,-2471.65
488.64185,-2513.28
489.11627,-2481.37
489.5907,-2562.77
490.06512,-2486.74
490.53952,-2440.43
491.01395,-2458.1
491.48837,-2436.09
491.9628,-2497.71
492.43719,-2562.46
492.91162,-2429.75
493.38605,-2378.7
493.86047,-2503.13
494.33487,-2422.11
494.8093,-2314.95
495.28372,-2376.08
495.75815,-2405.55
496.23254,-2363.55
496.70697,-2341.47
497.1814,-2269.12
497.65582,-2337.52
498.13022,-2379.46
498.60464,-2377.09
499.07907,-2378.92
499.5535,-2333.59
500.02789,-2267.45
500.50232,-2361.45
500.97675,-2438.55
501.45114,-2444.96
501.92557,-2415
502.39999,-2366.69
502.87442,-2307.22
503.34882,-2317.58
503.82324,-2262.61
504.29767,-2129.58
504.77209,-2220.84
505.24649,-2270.18
505.72092,-2124.8
506.19534,-2238.32
506.66977,-2273.79
507.14417,-2180.38
507.61859,-2266.64
508.09302,-2386.8
508.56744,-2270.52
509.04184,-2162.69
509.51627,-2174.28
509.99069,-2149.76
510.46512,-2136.09
510.93951,-2148.87
511.41394,-2283.63
511.88837,-2115.1
512.36279,-2046.75
512.83722,-2053.25
513.31165,-2035.27
513.78601,-2041.55
514.26044,-2039.38
514.73486,-2180.28
515.20929,-2068.99
515.68372,-1972.46
516.15814,-2085.06
516.63257,-2079.22
517.10699,-2079.06
517.58136,-2012.88
518.05579,-2023.82
518.53021,-2003.65
519.00464,-2121.84
519.47906,-2344.77
519.95349,-2171.4
520.42792,-2004.82
520.90234,-1866.8
521.37671,-1748.72
521.85114,-1891.09
522.32556,-1995.86
522.79999,-2039.92
523.27441,-1927.48
523.74884,-1809.66
524.22327,-1922.81
524.69769,-1621.38
525.17206,-1871.76
525.64648,-1957.08
526.12091,-1781.16
526.59534,-1841.56
527.06976,-1853.88
527.54419,-1782.06
528.01862,-1832.85
528.49304,-1854.83
528.96741,-1949.56
529.44183,-1967.79
529.91626,-1804.74
530.39069,-1826.27
530.86511,-1957.14
531.33954,-1732.87
531.81396,-1693.53
532.28839,-1625.36
532.76276,-1648.21
533.23718,-1659.37
533.71161,-1755.42
534.18604,-1774.71
534.66046,-1715.06
535.13489,-1814.44
535.60931,-1755.15
536.08374,-1694.85
536.55811,-1827.73
537.03253,-1696.27
537.50696,-1519.72
537.98138,-1755.23
538.45581,-1726.63
538.93024,-1647.49
539.40466,-1453.45
539.87909,-1651.68
540.35345,-1950.23
540.82788,-1657.42
541.30231,-1548.3
541.77673,-1794.87
542.25116,-1642.1
542.72559,-1527.39
543.20001,-1510.89
543.67444,-1515.46
544.1488,-1489.92
544.62323,-1471.31
545.09766,-1423.77
545.57208,-1508.11
546.04651,-1492.84
546.52094,-1537.38
546.99536,-1371.07
547.46979,-1312.24
547.94415,-1470.25
548.41858,-1406.84
548.89301,-1511.77
549.36743,-1650.1
549.84186,-1482.85
550.31628,-1483.81
550.79071,-1535.27
551.26514,-1581.19
551.7395,-1697.44
552.21393,-1608.18
552.68835,-1473.55
553.16278,-1645.74
553.63721,-1663.4
554.11163,-1563.57
554.58606,-1553.13
555.06049,-1522.99
555.53485,-1629.74
556.00928,-1582.14
556.4837,-1496.4
556.95813,-1669.51
557.43256,-1752.77
557.90698,-1494.99
558.38141,-1708.05
558.85583,-1563.56
559.3302,-1453.09
559.80463,-1596.25
560.27905,-1500.43
560.75348,-1714.49
561.22791,-1644.52
561.70233,-1486
562.17676,-1530.43
562.65118,-1553.65
563.12555,-1442.88
563.59998,-1603.18
564.0744,-1546.67
564.54883,-1351.03
565.02325,-1322.53
565.49768,-1564.84
565.97211,-1465.59
566.44653,-1442.24
566.9209,-1554.53
567.39532,-1272.22
567.86975,-1429.2
568.34418,-1437.2
568.8186,-1331.05
569.29303,-1473.19
569.76746,-1599.98
570.24188,-1547.64
570.71625,-1369.32
571.19067,-1526.92
571.6651,-1485.06
572.13953,-1360.93
572.61395,-1380.28
573.08838,-1303.94
573.56281,-1368.36
574.03723,-1307.96
574.5116,-1163.13
574.98602,-1300.95
575.46045,-1209.82
575.93488,-1129.91
576.4093,-1303.4
576.88373,-1195.08
577.35815,-1065.17
577.83258,-1277.57
578.30695,-1315.98
578.78137,-1101
579.2558,-1110.18
579.73022,-1224.92
580.20465,-1136.67
580.67908,-1107.45
581.1535,-1189.59
581.62793,-1082.1
582.10229,-1236.43
582.57672,-1149.51
583.05115,-1113.43
583.52557,-933.646
584,-927.372
584.47443,-978.99
584.94885,-1037.95
585.42328,-1143.26
585.89764,-910.535
586.37207,-773.101
586.8465,-796.334
587.32092,-848.658
587.79535,-980.191
588.26978,-925.689
588.7442,-784.601
589.21863,-870.829
589.69299,-867.276
590.16742,-790.263
590.64185,-646.392
591.11627,-715.336
591.5907,-722.505
592.06512,-685.769
592.53955,-874.949
593.01398,-689.034
593.48834,-563.008
593.96277,-740.528
594.43719,-846.481
594.91162,-794.499
595.38605,-659.102
595.86047,-713.834
596.3349,-839.902
596.80933,-940.706
597.28369,-658.064
597.75812,-586.164
598.23254,-795.421
598.70697,-680.624
599.1814,-574.101
599.65582,-530.969
600.13025,-582.545
600.60468,-633.065
601.07904,-639.784
601.55347,-644.901
602.02789,-768.204
602.50232,-641.01
602.97675,-717.708
603.45117,-803.427
603.9256,-625.311
604.40002,-649.888
604.87439,-578.587
605.34882,-692.037
605.82324,-776.461
606.29767,-804.064
606.77209,-876.634
607.24652,-715.667
607.72095,-836.632
608.19537,-875.602
608.66974,-820.441
609.14417,-919.921
609.61859,-921.812
610.09302,-843.473
610.56744,-889.666
611.04187,-860.572
611.5163,-684.886
611.99072,-699.526
612.46509,-877.471
612.93951,-838.916
613.41394,-827.214
613.88837,-773.995
614.36279,-787.964
614.83722,-777.969
615.31165,-716.654
615.78607,-984.046
616.26044,-1095.7
616.73486,-1056.75
617.20929,-1101.01
617.68372,-1026.75
618.15814,-940.453
618.63257,-982.185
619.10699,-1386.81
619.58142,-1248.31
620.05579,-1076.15
620.53021,-1212.23
621.00464,-1228.65
621.47906,-1109.35
621.95349,-1215.27
622.42792,-1156.49
622.90234,-1043.57
623.37671,-1137.25
623.85114,-1120.16
624.32556,-1100.24
624.79999,-1133.34
625.27441,-1123.71
625.74884,-1254.88
626.22327,-1318.51
626.69769,-1152.08
627.17206,-1473.13
627.64648,-1489.06
628.12091,-1336.2
628.59534,-1455.86
629.06976,-1476.27
629.54419,-1367.77
630.01862,-1209.83
630.49304,-1397.85
630.96741,-1397.96
631.44183,-1318.1
631.91626,-1563.88
632.39069,-1357.4
632.86511,-1309.05
633.33954,-1474.79
633.81396,-1477.41
634.28839,-1566.84
634.76276,-1558.6
635.23718,-1574.7
635.71161,-1566.17
636.18604,-1438.01
636.66046,-1604.96
637.13489,-1613.32
637.60931,-1606.31
638.08374,-1547.4
638.55811,-1683.25
639.03253,-1803.24
639.50696,-1612.86
639.98138,-1649.29
640.45581,-1805.21
640.93024,-1689.5
641.40466,-1547.16
641.87909,-1705.39
642.35345,-1811.59
642.82788,-1768.65
643.30231,-1777.1
643.77673,-1648.77
644.25116,-2011.43
644.72559,-1865.55
645.20001,-1806.89
645.67444,-1756.32
646.1488,-1695.56
646.62323,-1732.25
647.09766,-1874.14
647.57208,-1951.26
648.04651,-1852.54
648.52094,-1892.39
648.99536,-2004.23
649.46979,-1865.35
649.94415,-1691.09
650.41858,-1869.63
650.89301,-1941.3
651.36743,-1781.71
651.84186,-1967.65
652.31628,-1866.13
652.79071,-1708.96
653.26514,-1976.06
653.7395,-1997.87
654.21393,-1831.28
654.68835,-1933.29
655.16278,-1940.76
655.63721,-1967.22
656.11163,-1929.32
656.58606,-1951.93
657.06049,-2020.91
657.53485,-2155.67
658.00928,-2064.43
658.4837,-2174.36
658.95813,-1929.85
659.43256,-2022.11
659.90698,-2014.81
660.38141,-1922.43
660.85583,-2040.84
661.3302,-1968.36
661.80463,-2174.85
662.27905,-2378.15
662.75348,-2166.84
663.22791,-2196.19
663.70233,-2169.57
664.17676,-2002.97
664.65118,-1997.61
665.12555,-2108.98
665.59998,-2154.6
666.0744,-2086.07
666.54883,-2097.45
667.02325,-2191.9
667.49768,-2223.04
667.97211,-2189.82
668.44653,-2112.98
668.9209,-2055.82
669.39532,-2162.75
669.86975,-2334.58
670.34418,-2212.08
670.8186,-2186.33
671.29303,-2314.22
671.76746,-2151.88
672.24188,-2235.9
672.71625,-2292.89
673.19067,-2213.47
673.6651,-2318.17
674.13953,-2153.24
674.61395,-2206.53
675.08838,-2420.58
675.56281,-2308.04
676.03723,-2304.21
676.5116,-2370.57
676.98602,-2343.9
677.46045,-2281.16
677.93488,-2302.23
678.4093,-2360.87
678.88373,-2365.62
679.35815,-2300.65
679.83258,-2298.72
680.30695,-2272.04
680.78137,-2314.55
681.2558,-2311.52
681.73022,-2209.89
682.20465,-2283.06
682.67908,-2247.22
683.1535,-2253.08
683.62793,-2394.69
684.10229,-2278.09
684.57672,-2291.42
685.05115,-2302.65
685.52557,-2274.04
686,-2367.31
686.47443,-2413.72
686.94885,-2362.85
687.42328,-2281.9
687.89764,-2293.4
688.37207,-2394.21
688.8465,-2312.32
689.32092,-2371.82
689.79535,-2398.41
690.26978,-2372.01
690.7442,-2292.64
691.21863,-2394.09
691.69299,-2509.68
692.16742,-2391.83
692.64185,-2427.68
693.11627,-2552.62
693.5907,-2336.71
694.06512,-2348.12
694.53955,-2347.49
695.01398,-2436.52
695.48834,-2433.65
695.96277,-2461.67
696.43719,-2388.22
696.91162,-2343.83
697.38605,-2338.91
697.86047,-2327.11
698.3349,-2404.47
698.80933,-2457.47
699.28369,-2488.67
699.75812,-2508.81
700.23254,-2417.51
700.70697,-2465.86
701.1814,-2398.51
701.65582,-2500.88
702.13025,-2550.92
702.60468,-2481.16
703.07904,-2468.82
703.55347,-2448.69
704.02789,-2344.96
704.50232,-2335.63
704.97675,-2382.36
705.45117,-2362.28
705.9256,-2415.54
706.40002,-2457.66
706.87439,-2385.28
707.34882,-2511.31
707.82324,-2528.65
708.29767,-2410.67
708.77209,-2438.2
709.24652,-2383.6
709.72095,-2391.08
710.19537,-2494.51
710.66974,-2476.48
711.14417,-2431.61
711.61859,-2528.49
712.09302,-2573.49
712.56744,-2526.49
713.04187,-2507.59
713.5163,-2436.83
713.99072,-2502.64
714.46509,-2563.26
714.93951,-2520.17
715.41394,-2344.49
715.88837,-2429.32
716.36279,-2542.38
716.83722,-2433.56
717.31165,-2473.78
717.78607,-2534.04
718.26044,-2602.85
718.73486,-2623.09
719.20929,-2551.8
719.68372,-2643.08
720.15814,-2444.79
720.63257,-2573.38
721.10699,-2752.69
721.58142,-2561.67
722.05579,-2461.11
722.53021,-2462.28
723.00464,-2364.17
723.47906,-2385.28
723.95349,-2505.8
724.42792,-2595.58
724.90234,-2526.68
725.37677,-2489.48
725.85114,-2538.12
726.32556,-2470.52
726.79999,-2487.04
727.27441,-2615.18
727.74884,-2559.76
728.22327,-2512.71
728.69769,-2581.22
729.17212,-2729.33
729.64648,-2771.95
730.12091,-2601.19
730.59534,-2511.69
731.06976,-2475.77
731.54419,-2511.27
732.01862,-2518.22
732.49304,-2584.21
732.96747,-2656.5
733.44183,-2547.78
733.91626,-2569.62
734.39069,-2366.12
734.86511,-2241.65
735.33954,-2583.55
735.81396,-2675.01
736.28839,-2602.67
736.76282,-2633.81
737.23718,-2544.51
737.71161,-2657.87
738.18604,-2565.84
738.66046,-2488.41
739.13489,-2632.22
739.60931,-2700.41
740.08374,-2454.35
740.55817,-2514.7
741.03253,-2708.95
741.50696,-2624.41
741.98138,-2592.42
742.45581,-2678.96
742.93024,-2727.61
743.40466,-2699.71
743.87909,-2650.09
744.35345,-2655.19
744.82788,-2693.97
745.30231,-2615.41
745.77673,-2585.85
746.25116,-2534.42
746.72559,-2551.46
747.20001,-2538.96
747.67444,-2588.66
748.1488,-2609.54
748.62323,-2591.16
749.09766,-2568.73
749.57208,-2611.29
750.04651,-2733.94
750.52094,-2605.78
750.99536,-2583.77
751.46979,-2792.09
751.94415,-2698.6
752.41858,-2434.06
752.89301,-2547.68
753.36743,-2547.47
753.84186,-2612.43
754.31628,-2675.53
754.79071,-2633.56
755.26514,-2586.75
755.7395,-2582.35
756.21393,-2710.02
756.68835,-2697.35
757.16278,-2639.1
757.63721,-2762.94
758.11163,-2680.71
758.58606,-2641.34
759.06049,-2632.62
759.53485,-2641.01
760.00928,-2481.66
760.4837,-2606.47
760.95813,-2616.73
761.43256,-2673.88
761.90698,-2726.57
762.38141,-2497.44
762.85583,-2603.51
763.3302,-2914.29
763.80463,-2749.44
764.27905,-2718.13
764.75348,-2629.49
765.22791,-2618.32
765.70233,-2655.45
766.17676,-2618.82
766.65118,-2636.31
767.12555,-2667.81
767.59998,-2472.78
768.0744,-2592.14
768.54883,-2517.37
769.02325,-2493.6
769.49768,-2662.2
769.97211,-2627.45
770.44653,-2744.11
770.9209,-2726.97
771.39532,-2585.74
771.86975,-2623.73
772.34418,-2569.56
772.8186,-2580.52
773.29303,-2721.53
773.76746,-2695.08
774.24188,-2528.99
774.71625,-2467.28
775.19067,-2540.35
775.6651,-2496.61
776.13953,-2610.2
776.61395,-2725.89
777.08838,-2702.86
777.56281,-2746.17
778.03723,-2586.22
778.5116,-2862.06
778.98602,-2704.03
779.46045,-2738.82
779.93488,-2650.18
780.4093,-2532.75
780.88373,-2669.52
781.35815,-2688.41
781.83258,-2611.01
782.30695,-2657.33
782.78137,-2646.28
783.2558,-2700.76
783.73022,-2527.81
784.20465,-2415.06
784.67908,-2773.66
785.1535,-2744.46
785.62793,-2690.45
786.10229,-2839.27
786.57672,-2648.67
787.05115,-2652.35
787.52557,-2791.07
788,-2831.97
788.47443,-2681.27
788.94885,-2603.63
789.42328,-2901.02
789.89764,-2859.3
790.37207,-2613.92
790.8465,-2725.29
791.32092,-2733.83
791.79535,-2857.94
792.26978,-2882.58
792.7442,-2771.37
793.21863,-2596.95
793.69299,-2556.83
794.16742,-2649.21
794.64185,-2714.55
795.11627,-2810.74
795.5907,-2730.93
796.06512,-2614.81
796.53955,-2660.17
797.01398,-2530.67
797.48834,-2644.53
797.96277,-2723.28
798.43719,-2527.92
798.91162,-2492.49
799.38605,-2566.69
799.86047,-2693.19
800.3349,-2656.4
800.80933,-2632.94
801.28369,-2619.9
801.75812,-2656.08
802.23254,-2635.87
802.70697,-2543.25
803.1814,-2587.89
803.65582,-2704.9
804.13025,-2796.07
804.60468,-2463.56
805.07904,-2562.63
805.55347,-2708.76
806.02789,-2673.8
806.50232,-2765.29
806.97675,-2585.29
807.45117,-2593.94
807.9256,-2832.3
808.40002,-2720.14
808.87439,-2693.52
809.34882,-2718.92
809.82324,-2668.33
810.29767,-2627.91
810.77209,-2720.64
811.24652,-2762.03
811.72095,-2745.37
812.19537,-2640.64
812.66974,-2796.78
813.14417,-2630.81
813.61859,-2342.63
814.09302,-1983.26
814.56744,-1778.35
815.04187,-1653.9
815.5163,-1436.69
815.99072,-1744.94
816.46509,-2016.21
816.93951,-2173.31
817.41394,-2421.3
817.88837,-2622.34
818.36279,-2760.5
818.83722,-2735.72
819.31165,-2771.94
819.78607,-2791.6
820.26044,-2699.91
820.73486,-2644.05
821.20929,-2659.51
821.68372,-2819.42
822.15814,-2846.96
822.63257,-2620.56
823.10699,-2620.15
823.58142,-2653.54
824.05579,-2731.72
824.53021,-2775.35
825.00464,-2693
825.47906,-2660.01
825.95349,-2700.95
826.42792,-2643.33
826.90234,-2752.23
827.37677,-2725.59
827.85114,-2721.23
828.32556,-2573
828.79999,-2491.07
829.27441,-2595.88
829.74884,-2420.23
830.22327,-2461.31
830.69769,-2485.59
831.17212,-2462.39
831.64648,-2516.54
832.12091,-2600.36
832.59534,-2638.91
833.06976,-2620.79
833.54419,-2695.45
834.01862,-2566.78
834.49304,-2510.2
834.96747,-2708.03
835.44183,-2743.41
835.91626,-2733.78
836.39069,-2744.58
836.86511,-2738.59
837.33954,-2695.42
837.81396,-2730.15
838.28839,-2849.28
838.76282,-2686.28
839.23718,-2804.38
839.71161,-2696.13
840.18604,-2583.49
840.66046,-2610.07
841.13489,-2683.69
841.60931,-2834.32
842.08374,-2585.55
842.55817,-2564.23
843.03253,-2697.05
843.50696,-2546.25
843.98138,-2428.17
844.45581,-2343.32
844.93024,-2225.56
845.40466,-2055.7
845.87909,-2023.71
846.35352,-2027.07
846.82788,-2104.76
847.30231,-2288.33
847.77673,-2560.75
848.25116,-2779.59
848.72559,-2698.3
849.20001,-2699.76
849.67444,-2871.19
850.14886,-2762.27
850.62323,-2780.83
851.09766,-2715
851.57208,-2789.45
852.04651,-2763.72
852.52094,-2739.61
852.99536,-2779.24
853.46979,-2803.06
853.94421,-2697.68
854.41858,-2638.87
854.89301,-2648.34
855.36743,-2474.88
855.84186,-2386.87
856.31628,-2577.63
856.79071,-2642.64
857.26514,-2689.21
857.73956,-2774.62
858.21393,-2878.33
858.68835,-2868.81
859.16278,-2799
859.63721,-2693.64
860.11163,-2696.21
860.58606,-2797.08
861.06049,-2935.4
861.53491,-2775.41
862.00928,-2591.37
862.4837,-2712.08
862.95813,-2802.88
863.43256,-2852.36
863.90698,-2695.66
864.38141,-2667.13
864.85583,-2744.03
865.3302,-2618.46
865.80463,-2647.8
866.27905,-2761.08
866.75348,-2764.91
867.22791,-2782.76
867.70233,-2814.53
868.17676,-2651.13
868.65118,-2633.42
869.12555,-2759.39
869.59998,-2646.05
870.0744,-2623.96
870.54883,-2603.94
871.02325,-2651.77
871.49768,-2863.71
871.97211,-2847.15
872.44653,-2743.5
872.9209,-2799.09
873.39532,-2658.69
873.86975,-2605.36
874.34418,-2783.26
874.8186,-2733.17
875.29303,-2645.53
875.76746,-2678.54
876.24188,-2758.62
876.71625,-2865.13
877.19067,-2930.91
877.6651,-2765.13
878.13953,-2715.03
878.61395,-2658.03
879.08838,-2686.85
879.56281,-2765.48
880.03723,-2557.17
880.5116,-2641.79
880.98602,-2657.23
881.46045,-2549.28
881.93488,-2761.49
882.4093,-2731.78
882.88373,-2769.92
883.35815,-2761.69
883.83258,-2738.66
884.30695,-2737.97
884.78137,-2790.25
885.2558,-2823.04
885.73022,-2793.59
886.20465,-2804.05
886.67908,-2724.04
887.1535,-2708.09
887.62793,-2794.94
888.10229,-2746.13
888.57672,-2689.96
889.05115,-2745
889.52557,-2697.13
890,-2717.7
890.47443,-2731.35
890.94885,-2642.3
891.42328,-2725.6
891.89764,-2765.22
892.37207,-2714.4
892.8465,-2797.71
893.32092,-2748.75
893.79535,-2722.58
894.26978,-2715.18
894.7442,-2654.51
895.21863,-2668.57
895.69299,-2722.7
896.16742,-2875.05
896.64185,-2851.9
897.11627,-2766.45
897.5907,-2896.49
898.06512,-2754.77
898.53955,-2754.37
899.01398,-2742.34
899.48834,-2655.35
899.96277,-2730.78
900.43719,-2807.89
900.91162,-2794.72
901.38605,-2812.73
901.86047,-2791.82
902.3349,-2849.45
902.80933,-2759.49
903.28369,-2726.3
903.75812,-2733.57
904.23254,-2762.73
904.70697,-2782.42
905.1814,-2897.58
905.65582,-2800.98
906.13025,-2777.25
906.60468,-2739.07
907.07904,-2643.01
907.55347,-2692.06
908.02789,-2768.91
908.50232,-2794.55
908.97675,-2754.88
909.45117,-2786.09
909.9256,-2745.71
910.40002,-2694.31
910.87439,-2675.96
911.34882,-2811.8
911.82324,-2796.05
912.29767,-2707.98
912.77209,-2786.56
913.24652,-2727.23
913.72095,-2614.31
914.19537,-2579.04
914.66974,-2355.93
915.14417,-2264.14
915.61859,-2389
916.09302,-2322.18
916.56744,-2428.94
917.04187,-2531.56
917.5163,-2710.67
917.99072,-2762.14
918.46509,-2648.72
918.93951,-2632.51
919.41394,-2810.86
919.88837,-2834.15
920.36279,-2831.09
920.83722,-2928.44
921.31165,-2778.63
921.78607,-2737.24
922.26044,-2829.43
922.73486,-2808.89
923.20929,-2817.61
923.68372,-2743.65
924.15814,-2818.24
924.63257,-2739.44
925.10699,-2753.31
925.58142,-2715.07
926.05579,-2564.09
926.53021,-2767.98
927.00464,-2889.27
927.47906,-2742.16
927.95349,-2742.8
928.42792,-2819.59
928.90234,-2815.23
929.37677,-2682.03
929.85114,-2610.57
930.32556,-2976.36
930.79999,-2842.35
931.27441,-2732.47
931.74884,-2778.88
932.22327,-2784.74
932.69769,-2797.4
933.17212,-2788.85
933.64648,-2797.98
934.12091,-2774.41
934.59534,-2729.51
935.06976,-2837.09
935.54419,-2759.85
936.01862,-2795.53
936.49304,-2916.56
936.96747,-2772.83
937.44183,-2799.84
937.91626,-2783.36
938.39069,-2915.63
938.86511,-2823.94
939.33954,-2702.03
939.81396,-2707.36
940.28839,-2783.96
940.76282,-2802.58
941.23718,-2850.28
941.71161,-2925.39
942.18604,-2740.8
942.66046,-2859.94
943.13489,-2903.77
943.60931,-2646.89
944.08374,-2756.92
944.55817,-2883.59
945.03253,-2799.19
945.50696,-2719.1
945.98138,-2750.06
946.45581,-2776.18
946.93024,-2816.1
947.40466,-2899.22
947.87909,-2920.47
948.35352,-2923.13
948.82788,-2853
949.30231,-2740.17
949.77673,-2863.56
950.25116,-2807
950.72559,-2744.98
951.20001,-2907.3
951.67444,-2822.27
952.14886,-2677.37
952.62323,-2751.25
953.09766,-2875.32
953.57208,-2975.76
954.04651,-2866.95
954.52094,-2694.1
954.99536,-2734.13
955.46979,-2900.24
955.94421,-2822.13
956.41858,-2633.42
956.89301,-2785.68
957.36743,-2839.43
957.84186,-2954.36
958.31628,-2637.75
958.79071,-2707.46
959.26514,-3012.7
959.73956,-2819.12
960.21393,-2816.88
960.68835,-2952.67
961.16278,-2772.45
961.63721,-2828.44
962.11163,-2862.59
962.58606,-2830.95
963.06049,-2820.13
963.53491,-2740.21
964.00928,-2776.52
964.4837,-2869.25
964.95813,-2848.32
965.43256,-2936.45
965.90698,-2881.89
966.38141,-2960.3
966.85583,-2881.17
967.33026,-2823.29
967.80463,-2817.49
968.27905,-2744.86
968.75348,-2713.63
969.22791,-2572.99
969.70233,-2586.08
970.17676,-2720.81
970.65118,-2820.67
971.12561,-2717.87
971.59998,-2762.52
972.0744,-2874.9
972.54883,-2824.63
973.02325,-2786.97
973.49768,-2782.01
973.97211,-2805.32
974.44653,-2961.24
974.92096,-2882.35
975.39532,-2752.25
975.86975,-2931.12
976.34418,-2769.72
976.8186,-2592.83
977.29303,-2737.31
977.76746,-2652.27
978.24188,-2835.75
978.71631,-2843.66
979.19067,-2798.07
979.6651,-2868.18
980.13953,-2828.29
980.61395,-2791.47
981.08838,-2758.6
981.56281,-2732.1
982.03723,-2826.09
982.51166,-2832
982.98602,-2692.65
983.46045,-2669.76
983.93488,-2726.23
984.4093,-2785.72
984.88373,-2833.72
985.35815,-2934.82
985.83258,-2836.23
986.30701,-2811.77
986.78137,-2781.17
987.2558,-2837.89
987.73022,-2818.93
988.20465,-2806.06
988.67908,-2819.07
989.1535,-2740.57
989.62793,-2799.98
990.10229,-2879.73
990.57672,-2704.48
991.05115,-2558.14
991.52557,-2763.59
992,-2863.88
992.47443,-2814
992.94885,-2736.04
993.42328,-2749.67
993.89764,-2875.6
994.37207,-2791.65
994.8465,-2754.5
995.32092,-2897.7
995.79535,-2841.91
996.26978,-2911.1
996.7442,-3006.81
997.21863,-2849.61
997.69299,-2745.05
998.16742,-2887.76
998.64185,-2939.24
999.11627,-2750.92
999.5907,-3059.63
1000.0651,-2834.55
1000.5396,-2824.39
1001.014,-2962.15
1001.4883,-2923.43
1001.9628,-2812.37
1002.4372,-2719.86
1002.9116,-2666.83
1003.386,-2720.88
1003.8605,-2927.18
1004.3349,-2857.91
1004.8093,-2715.41
1005.2837,-2700.24
1005.7581,-2613.71
1006.2325,-2879.02
1006.707,-2926.49
1007.1814,-2750.39
1007.6558,-2774.11
1008.1302,-2882.48
1008.6047,-2806.89
1009.079,-2662.67
1009.5535,-2775.89
1010.0279,-2837.74
1010.5023,-2761.22
1010.9767,-2906.75
1011.4512,-2815.63
1011.9256,-2781.73
1012.4,-3017.8
1012.8744,-3046.81
1013.3488,-2868.53
1013.8232,-2901.86
1014.2977,-2989.2
1014.7721,-2870.74
1015.2465,-2742.26
1015.7209,-2668.91
1016.1954,-2548.79
1016.6697,-2407.43
1017.1442,-2327.84
1017.6186,-2298.11
1018.093,-2370.49
1018.5674,-2528.94
1019.0419,-2596.38
1019.5163,-2751.51
1019.9907,-2868.21
1020.4651,-2839
1020.9395,-2840.43
1021.4139,-3079.11
1021.8884,-2899.75
1022.3628,-2850.63
1022.8372,-2958.75
1023.3116,-2799.15
1023.7861,-2805.53
1024.2605,-2932.94
1024.7349,-2898.49
1025.2094,-2826.76
1025.6837,-2758.78
1026.1581,-2770.31
1026.6326,-2874.38
1027.1069,-2890.58
1027.5814,-2901.32
1028.0558,-2804.76
1028.5303,-2874.22
1029.0046,-2886.05
1029.4791,-2659.87
1029.9535,-2770.47
1030.4279,-2856.36
1030.9023,-2762.46
1031.3767,-2736.35
1031.8512,-2752.61
1032.3256,-2798.84
1032.8,-2887.73
1033.2744,-2967.2
1033.7488,-2773.38
1034.2233,-2864.75
1034.6976,-2781.21
1035.1721,-2878.66
1035.6465,-2899.68
1036.121,-2816.88
1036.5953,-2869.24
1037.0698,-2842.78
1037.5442,-2689.34
1038.0186,-2808.73
1038.493,-2938.21
1038.9674,-2826.27
1039.4419,-2683
1039.9163,-2632.06
1040.3907,-2755.51
1040.8651,-2694.63
1041.3395,-2722.94
1041.814,-2622.25
1042.2883,-2615.51
1042.7628,-2762.89
1043.2372,-2763.32
1043.7117,-2808.44
1044.186,-2781.51
1044.6605,-2657.05
1045.1349,-2872.1
1045.6093,-2910.94
1046.0837,-2829.37
1046.5581,-3067.03
1047.0326,-2961.94
1047.507,-2669.52
1047.9814,-2732.8
1048.4558,-2646.11
1048.9302,-2726.27
1049.4047,-2740.7
1049.879,-2941.59
1050.3535,-2948.3
1050.8279,-2750.73
1051.3024,-2897.14
1051.7767,-2992.92
1052.2512,-2861.08
1052.7256,-2885.4
1053.2,-2830.8
1053.6744,-2951.59
1054.1488,-2866.73
1054.6233,-2737.25
1055.0977,-2774.11
1055.5721,-2765.19
1056.0465,-2813.1
1056.5209,-2989.75
1056.9954,-2855.75
1057.4697,-2783.26
1057.9442,-2870.27
1058.4186,-2843.21
1058.8931,-2911.05
1059.3674,-2869.15
1059.8419,-2737.65
1060.3163,-2913.47
1060.7906,-2811.5
1061.2651,-2978.35
1061.7395,-2913.15
1062.214,-2891.97
1062.6884,-2943.66
1063.1628,-2919.85
1063.6372,-2881.34
1064.1116,-2807.68
1064.5861,-2794.62
1065.0604,-2972.83
1065.5349,-3045.27
1066.0093,-2922.05
1066.4838,-2890.65
1066.9581,-2960.05
1067.4326,-2913.71
1067.907,-2762.94
1068.3813,-2683.56
1068.8558,-2800.2
1069.3302,-2907.08
1069.8047,-2999.12
1070.2791,-2737.66
1070.7535,-2684.6
1071.2279,-2854.83
1071.7023,-2833.45
1072.1768,-2750.03
1072.6511,-2606.14
1073.1256,-2784.21
1073.6,-2892.33
1074.0745,-2616.52
1074.5488,-2732.22
1075.0233,-3078.57
1075.4977,-2877.34
1075.972,-2818.16
1076.4465,-2822.25
1076.9209,-2667.81
1077.3954,-2988.42
1077.8698,-2883.39
1078.3442,-2720.81
1078.8186,-2914.38
1079.293,-2797.69
1079.7675,-2836.09
1080.2418,-2919.68
1080.7163,-2906.26
1081.1907,-2983.04
1081.6652,-2875.85
1082.1395,-2752.75
1082.614,-2780.49
1083.0884,-2823.22
1083.5627,-2824.44
1084.0372,-2840.47
1084.5116,-2839.96
1084.9861,-2910.28
1085.4604,-2999.29
1085.9349,-2820.1
1086.4093,-2639.83
1086.8837,-2819.63
1087.3582,-2908.05
1087.8325,-2849.25
1088.307,-2819.46
1088.7814,-2786.41
1089.2559,-2775.95
1089.7302,-2685.58
1090.2047,-2837.52
1090.6791,-2868.19
1091.1534,-2959.93
1091.6279,-2800.72
1092.1023,-2764.99
1092.5768,-2834.52
1093.0511,-2911.19
1093.5256,-2862.63
1094,-2774.25
1094.4744,-2804.79
1094.9489,-2707.98
1095.4232,-2726.09
1095.8977,-2839.91
1096.3721,-2875.2
1096.8466,-2814.93
1097.3209,-2726.19
1097.7954,-2709
1098.2698,-2695.06
1098.7441,-2858.61
1099.2186,-2813.01
1099.693,-2746.98
1100.1675,-2730.64
1100.6418,-2824.39
1101.1163,-2964.58
1101.5907,-2806.87
1102.0651,-2744.15
1102.5396,-2853.93
1103.0139,-2730.86
1103.4884,-2926.85
1103.9628,-2783.65
1104.4373,-2803.2
1104.9116,-2810.62
1105.3861,-2766.91
1105.8605,-2880.6
1106.3348,-2837.81
1106.8093,-2912.95
1107.2837,-2882.03
1107.7582,-2711.74
1108.2325,-2683.3
1108.707,-2789.71
1109.1814,-2876.54
1109.6558,-2801.37
1110.1302,-2870.77
1110.6046,-3011.01
1111.0791,-2926.57
1111.5535,-2856.22
1112.028,-2814.06
1112.5023,-2893.99
1112.9767,-2924.43
1113.4512,-2953.24
1113.9255,-2962.43
1114.4,-2872.65
1114.8744,-2839.47
1115.3489,-2858.86
1115.8232,-2952.15
1116.2977,-2969.81
1116.7721,-2865.56
1117.2465,-2907.75
1117.7209,-2817.67
1118.1953,-2873.27
1118.6698,-2802.18
1119.1442,-2793.22
1119.6187,-2956.37
1120.093,-2941.76
1120.5674,-2808.34
1121.0419,-2860.83
1121.5162,-2813.35
1121.9907,-2787.41
1122.4651,-2865.63
1122.9396,-2856.04
1123.4139,-2853.2
1123.8884,-2800.52
1124.3628,-2791.95
1124.8372,-2897.41
1125.3116,-2833.16
1125.786,-2809.93
1126.2605,-2857.25
1126.7349,-2810.73
1127.2094,-2709.26
1127.6837,-2845.13
1128.1581,-2894.25
1128.6326,-2841.85
1129.1069,-3020.79
1129.5814,-2929.55
1130.0558,-2970.06
1130.5303,-2930.28
1131.0046,-2924.89
1131.4791,-2960.11
1131.9535,-2787.21
1132.4279,-2851.07
1132.9023,-2810.96
1133.3767,-2837.87
1133.8512,-2828.48
1134.3256,-2834.01
1134.8,-2929.75
1135.2744,-3001.17
1135.7488,-2844.11
1136.2233,-2736.1
1136.6976,-2927.63
1137.1721,-2923.2
1137.6465,-2909.23
1138.121,-2768.71
1138.5953,-2985.24
1139.0698,-3058.46
1139.5442,-2842.82
1140.0186,-2842.16
1140.493,-2947.09
1140.9674,-2919.89
1141.4419,-2781.63
1141.9163,-2839.74
1142.3907,-2802.22
1142.8651,-2835.32
1143.3395,-2931.15
1143.814,-2888.16
1144.2883,-2972.34
1144.7628,-3024.08
1145.2372,-2896.02
1145.7117,-2815.97
1146.186,-3013.43
1146.6605,-3000.07
1147.1349,-2993.59
1147.6093,-2869.76
1148.0837,-2744.87
1148.5581,-2830.15
1149.0326,-2777.73
1149.507,-2962.74
1149.9814,-3060.1
1150.4558,-2885.54
1150.9302,-2866.2
1151.4047,-2804.29
1151.879,-2721.16
1152.3535,-2943.48
1152.8279,-2951.71
1153.3024,-2856.48
1153.7767,-2818.29
1154.2512,-2850.87
1154.7256,-2799.2
1155.2,-2835.5
1155.6744,-2866.92
1156.1488,-2886.13
1156.6233,-2993.76
1157.0977,-2897.81
1157.5721,-2842.11
1158.0465,-2905.1
1158.5209,-2947.53
1158.9954,-2947.25
1159.4697,-2898.47
1159.9442,-2864.23
1160.4186,-2721.14
1160.8931,-2806.05
1161.3674,-2816.91
1161.8419,-2940.14
1162.3163,-3003.03
1162.7906,-2918.69
1163.2651,-2923.6
1163.7395,-2875.62
1164.214,-2864.34
1164.6884,-2965.97
1165.1628,-3047.03
1165.6372,-2987.99
1166.1116,-2717.86
1166.5861,-2719.6
1167.0604,-2929
1167.5349,-2910.33
1168.0093,-2761.48
1168.4838,-3007.87
1168.9581,-2926.55
1169.4326,-2780.2
1169.907,-2863.06
1170.3813,-2905.92
1170.8558,-2929.21
1171.3302,-2942.65
1171.8047,-2913.62
1172.2791,-2916.59
1172.7535,-2930.4
1173.2279,-2931.85
1173.7023,-2823.15
1174.1768,-2751.38
1174.6511,-2953.27
1175.1256,-3101.06
1175.6,-2830.05
1176.0745,-2916.15
1176.5488,-3026.09
1177.0233,-3009.1
1177.4977,-3025.5
1177.972,-2904.58
1178.4465,-2947.88
1178.9209,-2909.47
1179.3954,-2756.9
1179.8698,-2888.88
1180.3442,-3019.57
1180.8186,-3040.13
1181.293,-2876.42
1181.7675,-2745.7
1182.2418,-2913.73
1182.7163,-3035.99
1183.1907,-2911.28
1183.6652,-2917.59
1184.1395,-3056.46
1184.614,-2763.45
1185.0884,-2987.34
1185.5627,-2860.61
1186.0372,-2942.65
1186.5116,-2948.14
1186.9861,-2744.63
1187.4604,-2937.49
1187.9349,-2934.18
1188.4093,-2897.63
1188.8837,-2873.31
1189.3582,-2807.75
1189.8325,-2828.15
1190.307,-2990.31
1190.7814,-2851.32
1191.2559,-2667.69
1191.7302,-2787.81
1192.2047,-2908.78
1192.6791,-2825.21
1193.1534,-2964.66
1193.6279,-2874.86
1194.1023,-2966.05
1194.5768,-3041.36
1195.0511,-2856.94
1195.5256,-3003.59
1196,-2908.18
1196.4744,-2874.75
1196.9489,-2972.63
1197.4232,-2965.5
1197.8977,-2997.23
1198.3721,-2907.9
1198.8466,-2876.98
1199.3209,-2877.59
1199.7954,-2923.4
1200.2698,-2936.78
1200.7441,-2829.54
1201.2186,-2811.13
1201.693,-2953.04
1202.1675,-2894.79
1202.6418,-2790.84
1203.1163,-2977.09
1203.5907,-2916.68
1204.0651,-2771.71
1204.5396,-3065.99
1205.0139,-2901.41
1205.4884,-2965.9
1205.9628,-3011.94
1206.4373,-2967.74
1206.9116,-2934.91
1207.3861,-3061.99
1207.8605,-2865.42
1208.3348,-2962.86
1208.8093,-2955.58
1209.2837,-2989.72
1209.7582,-3056.32
1210.2325,-2768.16
1210.707,-2800.21
1211.1814,-2900.99
1211.6558,-3033.6
1212.1302,-3043.11
1212.6046,-2784.2
1213.0791,-2909.23
1213.5535,-2688.91
1214.028,-2877.31
1214.5023,-3161.78
1214.9768,-2849.55
1215.4512,-2791.47
1215.9255,-2994.02
1216.4,-2992.16
1216.8744,-2791.85
1217.3489,-2848.26
1217.8232,-2967
1218.2977,-2848.23
1218.7721,-2964.14
1219.2465,-2873.28
1219.7209,-3008.96
1220.1953,-3004.02
1220.6698,-3186.26
1221.1442,-3053.82
1221.6187,-2859.87
1222.093,-2978.83
1222.5675,-3114.01
1223.0419,-3127.74
1223.5162,-3019.41
1223.9907,-2874.2
1224.4651,-2982.53
1224.9396,-2991.76
1225.4139,-2817.28
1225.8884,-2825.79
1226.3628,-2933.3
1226.8372,-2825.23
1227.3116,-2819.82
1227.786,-2979.58
1228.2605,-3003.5
1228.7349,-2935.02
1229.2094,-3178.99
1229.6837,-2964.56
1230.1581,-2741.71
1230.6326,-2989.89
1231.1069,-2954.91
1231.5814,-2820.1
1232.0558,-2904.05
1232.5303,-2949.81
1233.0046,-2902.18
1233.4791,-2841.41
1233.9535,-2921.94
1234.4279,-2954.8
1234.9023,-2935.21
1235.3767,-3024
1235.8512,-2817.07
1236.3256,-2948.68
1236.8,-2941.28
1237.2744,-2864.15
1237.7488,-2855.79
1238.2233,-2817.04
1238.6976,-2896.2
1239.1721,-2918.73
1239.6465,-2895.15
1240.121,-2995.19
1240.5953,-2895.8
1241.0698,-2908.53
1241.5442,-2839.72
1242.0186,-2901.76
1242.493,-2932.85
1242.9674,-2956.59
1243.4419,-2876.26
1243.9163,-2898.33
1244.3907,-2878.1
1244.8651,-2808.91
1245.3395,-2771.83
1245.814,-2821.28
1246.2883,-2892.19
1246.7628,-2901.02
1247.2372,-2915.67
1247.7117,-2865.87
1248.186,-2829.43
1248.6605,-2798.55
1249.1349,-2868.1
1249.6093,-2830.79
1250.0837,-2821.32
1250.5581,-2878.11
1251.0326,-2835.75
1251.507,-2872.81
1251.9814,-3018.46
1252.4558,-2843.47
1252.9302,-2994.05
1253.4047,-3007.52
1253.879,-2841.21
1254.3535,-3060.14
1254.8279,-2938.97
1255.3024,-2839.74
1255.7767,-2887.52
1256.2512,-2752.28
1256.7256,-2826.08
1257.2,-2889.02
1257.6744,-3110.24
1258.1488,-2969.1
1258.6233,-2742.56
1259.0977,-3000.23
1259.5721,-2875.88
1260.0465,-2870.07
1260.5209,-2959.88
1260.9954,-2938.71
1261.4697,-2992.63
1261.9442,-2966.24
1262.4186,-2862.29
1262.8931,-2719.04
1263.3674,-2738.34
1263.8419,-2797.39
1264.3163,-3021.29
1264.7906,-2926.27
1265.2651,-2903.03
1265.7395,-3106.45
1266.214,-3107.96
1266.6884,-2963.83
1267.1628,-2910.63
1267.6372,-2989.19
1268.1116,-3005.59
1268.5861,-3008.5
1269.0604,-2979.8
1269.5349,-2909.08
1270.0093,-2898.17
1270.4838,-2797.81
1270.9581,-2870.31
1271.4326,-2904.99
1271.907,-2843.02
1272.3813,-2775.51
1272.8558,-3119.22
1273.3302,-2976.31
1273.8047,-2863.5
1274.2791,-2972.57
1274.7535,-2931.66
1275.2279,-2929.73
1275.7023,-2810.74
1276.1768,-2870.8
1276.6511,-2810.43
1277.1256,-2890.12
1277.6,-2978.46
1278.0745,-2665.16
1278.5488,-2952.41
1279.0233,-2972.27
1279.4977,-2874.03
1279.972,-2878.98
1280.4465,-2969.13
1280.9209,-2925.26
1281.3954,-2853.48
1281.8698,-2843.57
1282.3442,-2968.04
1282.8186,-2993.08
1283.293,-3011.23
1283.7675,-3121.01
1284.2418,-2732.32
1284.7163,-2763.61
1285.1907,-3065.19
1285.6652,-2874.41
1286.1395,-2964.21
1286.614,-2935.71
1287.0884,-2637.22
1287.5627,-2997.6
1288.0372,-3070.83
1288.5116,-2986.6
1288.9861,-2972.21
1289.4604,-2783.07
1289.9349,-2746.63
1290.4093,-3001.15
1290.8837,-2980.36
1291.3582,-2934.73
1291.8325,-2886.69
1292.307,-2748.83
1292.7814,-3000.2
1293.2559,-3060.93
1293.7302,-2869.25
1294.2047,-2778.27
1294.6791,-2793.79
1295.1534,-2865.39
1295.6279,-2877.9
1296.1023,-2936
1296.5768,-2888.31
1297.0511,-2734.18
1297.5256,-2855.35
1298,-2997.4
1298.4744,-2940.77
1298.9489,-2930.34
1299.4232,-2751.76
1299.8977,-2813.39
1300.3721,-2893.64
1300.8466,-2937.91
1301.3209,-2890.72
1301.7954,-2928.16
1302.2698,-2992.03
1302.7441,-2840.82
1303.2186,-2897.43
1303.693,-3154.24
1304.1675,-2952.61
1304.6418,-2908.81
1305.1163,-2966.63
1305.5907,-2800.1
1306.0651,-2899.43
1306.5396,-3059.63
1307.0139,-2838.96
1307.4884,-2942.01
1307.9628,-2884.68
1308.4373,-2895.27
1308.9116,-3030.43
1309.3861,-2962.08
1309.8605,-2949.34
1310.3348,-2827.09
1310.8093,-2864.24
1311.2837,-2914.03
1311.7582,-2876.21
1312.2325,-2965.96
1312.707,-3011.44
1313.1814,-2976.6
1313.6558,-2990.68
1314.1302,-2890.71
1314.6046,-2909.99
1315.0791,-2859
1315.5535,-2802.62
1316.028,-2974.44
1316.5023,-2989.02
1316.9768,-2895.13
1317.4512,-2942.9
1317.9255,-3039.62
1318.4,-2997.74
1318.8744,-2925.79
1319.3489,-2874.75
1319.8232,-2927.93
1320.2977,-2964.69
1320.7721,-3011.42
1321.2465,-3165.7
1321.7209,-3008.17
1322.1953,-2923.64
1322.6698,-2922.38
1323.1442,-2938.47
1323.6187,-2930.55
1324.093,-2912.7
1324.5675,-3010.34
1325.0419,-3036.85
1325.5162,-3042.89
1325.9907,-2920.78
1326.4651,-2894.72
1326.9396,-3015.66
1327.4139,-3078.87
1327.8884,-3003.16
1328.3628,-2950.52
1328.8372,-2880.16
1329.3116,-2795.29
1329.786,-2946.92
1330.2605,-2907.82
1330.7349,-3003.01
1331.2094,-3067.12
1331.6837,-2925.93
1332.1582,-2989.62
1332.6326,-2971.77
1333.1069,-2954.78
1333.5814,-2948.44
1334.0558,-2930.27
1334.5303,-2841.73
1335.0046,-2990.17
1335.4791,-3042.28
1335.9535,-2909.39
1336.4279,-3018.91
1336.9023,-2949.87
1337.3767,-2926.7
1337.8512,-2990.97
1338.3256,-2974.32
1338.8,-2965.41
1339.2744,-2946.8
1339.7489,-2906.56
1340.2233,-2924.28
1340.6976,-2965.45
1341.1721,-3049.77
1341.6465,-2837.43
1342.121,-3026.64
1342.5953,-3105.73
1343.0698,-2929.53
1343.5442,-3004.07
1344.0186,-2913.53
1344.493,-2933.3
1344.9674,-2995.2
1345.4419,-2910.65
1345.9163,-3220.22
1346.3907,-3018.98
1346.8651,-2963.26
1347.3396,-2955.19
1347.814,-2934.19
1348.2883,-3039.77
1348.7628,-2902.28
1349.2372,-2962.86
1349.7117,-3029.71
1350.186,-3012.08
1350.6605,-3070.16
1351.1349,-3115.76
1351.6093,-3126.69
1352.0837,-3040.84
1352.5581,-2976.8
1353.0326,-3071.65
1353.507,-3086.08
1353.9814,-3142.63
1354.4558,-3010.06
1354.9302,-2790.3
1355.4047,-2866.25
1355.879,-2866.53
1356.3535,-2798.54
1356.8279,-3114.75
1357.3024,-3078.81
1357.7767,-2945.09
1358.2512,-3058.64
1358.7256,-2904.78
1359.2,-2727.49
1359.6744,-2964.74
1360.1488,-3151.64
1360.6233,-3018.66
1361.0977,-2921.55
1361.5721,-2993.12
1362.0465,-3018.93
1362.5209,-2998.59
1362.9954,-3025.81
1363.4697,-3007.05
1363.9442,-3086.94
1364.4186,-2963.02
1364.8931,-3077.65
1365.3674,-3040.86
1365.8419,-2936.97
1366.3163,-3088.9
1366.7906,-3007.64
1367.2651,-2891.23
1367.7395,-3067.54
1368.214,-3057.57
1368.6884,-3004.89
1369.1628,-2937.13
1369.6372,-2883.93
1370.1116,-2911.82
1370.5861,-3067.77
1371.0604,-3101.34
1371.5349,-2876.99
1372.0093,-3050.32
1372.4838,-3090.98
1372.9581,-2974.99
1373.4326,-2868.44
1373.907,-2900.8
1374.3813,-3108.23
1374.8558,-3049.74
1375.3302,-2912.21
1375.8047,-2999.09
1376.2791,-2906.89
1376.7535,-3026.51
1377.2279,-2973.93
1377.7023,-2779.04
1378.1768,-2973.97
1378.6511,-2955.8
1379.1256,-2958.53
1379.6,-3015.4
1380.0745,-2976.08
1380.5488,-3034.3
1381.0233,-2899.35
1381.4977,-2886.96
1381.972,-3111
1382.4465,-3043.26
1382.9209,-2960.87
1383.3954,-3125.15
1383.8698,-3054.67
1384.3442,-2948.48
1384.8186,-3039.47
1385.293,-2968.86
1385.7675,-3144.38
1386.2418,-2982.34
1386.7163,-3027.76
1387.1907,-3067.55
1387.6652,-3118.93
1388.1395,-3127.53
1388.614,-3014.16
1389.0884,-3009.13
1389.5627,-3098.73
1390.0372,-2976.67
1390.5116,-2914.88
1390.9861,-3122.88
1391.4604,-3016.82
1391.9349,-2879.51
1392.4093,-3173.08
1392.8837,-2896.74
1393.3582,-3034.41
1393.8325,-2956.52
1394.307,-2910.71
1394.7814,-3111.02
1395.2559,-3077.09
1395.7302,-3046.33
1396.2047,-2915.97
1396.6791,-2913.48
1397.1534,-3114.72
1397.6279,-3107.35
1398.1023,-2973.41
1398.5768,-2935.29
1399.0511,-2957.8
1399.5256,-2993.07
1400,-2961.09
