Date and Time:                Mon Jan 17 20:30:06.000 2022
Software Version:             4.31.30023.0
Temperature (C):              -50
Model:                        DU420_BVF
Data Type:                    Counts (Bg Corrected)
Acquisition Mode:             Accumulate
Trigger Mode:                 Internal
Exposure Time (secs):         0.09999
Accumulate Cycle Time (secs): 0.09999
Frequency (Hz):               10.001
Number of Accumulations:      1000
Readout Mode:                 Full Vertical Binning
Horizontal binning:           1
Extended Dynamic Range:       off
Horizontally flipped:         false
Vertical Shift Speed (usecs): 8.25
Pixel Readout Time (usecs):   30.303
Serial Number:                22942
Pre-Amplifier Gain:           1.000000
Spurious Noise Filter Mode:   No Filter
Photon counted:               false
Data Averaging Filter Mode:   No Filter
KY328i:
Serial Number:                
Wavelength (nm):              889.526
Grating Groove Density (l/mm):150.012
Grating Blaze:                500nm
Output Flipper Port:          Direct
Filter:                       6-785 LP



380,-2092.23
380.4744,-1997.58
380.94882,-2077.6
381.42325,-2097.06
381.89767,-2170.93
382.37207,-2146.33
382.8465,-1983.61
383.32092,-2091.9
383.79535,-2320.68
384.26974,-2259.07
384.74417,-2104.61
385.2186,-2192.16
385.69302,-2238.5
386.16742,-2168.84
386.64185,-2287.23
387.11627,-2035.18
387.5907,-2052.06
388.06509,-2093.12
388.53952,-2133.96
389.01395,-2068.13
389.48837,-2009.63
389.96277,-2066.39
390.43719,-2058.57
390.91162,-1993.92
391.38605,-2054.05
391.86044,-2081.83
392.33487,-2077.54
392.8093,-2221.34
393.28372,-1964.74
393.75812,-2013.44
394.23254,-2086.1
394.70697,-2122.39
395.1814,-2049
395.65579,-2020.81
396.13022,-2086.44
396.60464,-2053.69
397.07907,-2064.27
397.55347,-2096.31
398.02789,-2072.41
398.50232,-2163.06
398.97675,-2125.95
399.45114,-2013.47
399.92557,-2059.82
400.39999,-2015.12
400.87442,-1873.7
401.34882,-1950.62
401.82324,-2045.12
402.29767,-2195.71
402.77209,-2121.73
403.24649,-1947.35
403.72092,-2039.05
404.19534,-2108.49
404.66977,-2205.88
405.14417,-2022.71
405.61859,-2018.1
406.09302,-2044.02
406.56744,-2046.09
407.04184,-1983.46
407.51627,-1832.54
407.99069,-1272.71
408.46512,-544.714
408.93951,-105.226
409.41394,370.577
409.88837,454.978
410.36279,97.0774
410.83719,-425.449
411.31161,-1077.58
411.78604,-1674.2
412.26047,-1736.2
412.73486,-1914.45
413.20929,-2009.52
413.68372,-2017.96
414.15814,-1925.08
414.63254,-1843.4
415.10696,-1932.84
415.58139,-1936.33
416.05582,-2085.09
416.53021,-2100.91
417.00464,-2062.65
417.47906,-2027.61
417.95349,-2194.03
418.42789,-2269.76
418.90231,-2081.19
419.37674,-2054.88
419.85117,-1960.31
420.32556,-2002.81
420.79999,-1982.77
421.27441,-1940.51
421.74884,-2185.03
422.22324,-2049.02
422.69766,-1932.98
423.17209,-2148.82
423.64651,-2059.23
424.12091,-2190.4
424.59534,-2079.04
425.06976,-2019.98
425.54419,-2125.36
426.01859,-1957.07
426.49301,-2032.06
426.96744,-2069.44
427.44186,-1928.85
427.91626,-2098.01
428.39069,-2191.44
428.86511,-2036.51
429.33954,-2024.18
429.81393,-2106.83
430.28836,-2118.08
430.76279,-1973.01
431.23721,-1920.74
431.71161,-2155.83
432.18604,-2164.37
432.66046,-2163.17
433.13489,-2318.64
433.60928,-1974.72
434.08371,-2037.3
434.55814,-2175.24
435.03256,-2060.41
435.50696,-2047.83
435.98138,-1977.93
436.45581,-1968.32
436.93024,-2136.75
437.40463,-2066.69
437.87906,-1968.59
438.35349,-1975.34
438.82791,-2032.45
439.30231,-1995.97
439.77673,-1803.7
440.25116,-1752.16
440.72559,-1797.18
441.19998,-2118.29
441.67441,-2231.55
442.14883,-2035.41
442.62326,-2023.95
443.09766,-2072.51
443.57208,-1994.67
444.04651,-1862.64
444.52094,-1835.29
444.99533,-1938.85
445.46976,-1993.9
445.94418,-1971.98
446.41861,-2011.69
446.89301,-2173.12
447.36743,-2054.64
447.84186,-2070.85
448.31628,-2046.25
448.79068,-1897.17
449.26511,-2101.76
449.73953,-2075.74
450.21396,-1888.28
450.68835,-2041.12
451.16278,-2041.2
451.63721,-2105.84
452.11163,-2138.43
452.58603,-2098.99
453.06046,-2171.85
453.53488,-2129.64
454.00931,-2025.74
454.4837,-2225.45
454.95813,-2149.5
455.43256,-1973.69
455.90698,-2002.63
456.38138,-2011.91
456.8558,-2033.74
457.33023,-2106.11
457.80466,-2005.13
458.27905,-2007.92
458.75348,-2202.11
459.22791,-2091.99
459.70233,-2055.53
460.17673,-1918.65
460.65115,-1851.75
461.12558,-1987.14
461.60001,-1829.85
462.0744,-1920.77
462.54883,-2124.01
463.02325,-2163.63
463.49768,-2061.59
463.97208,-1911.33
464.4465,-2090.08
464.92093,-2161.88
465.39536,-2119.66
465.86975,-1993.87
466.34418,-1975.5
466.8186,-1987.32
467.29303,-2006.83
467.76743,-2052.72
468.24185,-2073.57
468.71628,-1967.05
469.1907,-1900.2
469.6651,-1991.77
470.13953,-1965.49
470.61395,-2071.73
471.08838,-2220.34
471.56277,-1925.64
472.0372,-1955.31
472.51163,-2040.22
472.98605,-2060.43
473.46045,-2089.56
473.93488,-2003.13
474.4093,-1977.94
474.88373,-2003.68
475.35812,-2076.26
475.83255,-2162.68
476.30698,-2052.71
476.7814,-2084.73
477.2558,-2092.62
477.73022,-2026.5
478.20465,-2072.2
478.67908,-2012.01
479.15347,-1981.93
479.6279,-2093.9
480.10233,-2035.98
480.57675,-1949.01
481.05115,-2063.99
481.52557,-2165.83
482,-2148.16
482.47443,-2091.62
482.94882,-2132.65
483.42325,-2077.1
483.89767,-2026.08
484.3721,-2006.94
484.8465,-2052.4
485.32092,-2174.68
485.79535,-2120.29
486.26978,-2184.36
486.74417,-2138.01
487.2186,-2029.21
487.69302,-2055.77
488.16745,-2021.92
488.64185,-2019.75
489.11627,-2086.74
489.5907,-2090.11
490.06512,-2056.02
490.53952,-2116.82
491.01395,-2079.03
491.48837,-2088.13
491.9628,-2131.92
492.43719,-2181.12
492.91162,-2061.54
493.38605,-2044.39
493.86047,-2089.93
494.33487,-1958.44
494.8093,-2006.52
495.28372,-2073.06
495.75815,-2150.12
496.23254,-2145.34
496.70697,-2093.2
497.1814,-2093.65
497.65582,-2156.77
498.13022,-2137.51
498.60464,-2153.7
499.07907,-2008.9
499.5535,-1936.43
500.02789,-2121.1
500.50232,-2125.57
500.97675,-2084.89
501.45114,-2125.92
501.92557,-2118.78
502.39999,-2120.91
502.87442,-2203.81
503.34882,-2092.5
503.82324,-2164.07
504.29767,-2133.33
504.77209,-2004.12
505.24649,-2167.34
505.72092,-2063.34
506.19534,-2203.59
506.66977,-2161.55
507.14417,-2022.86
507.61859,-2158.7
508.09302,-2210.05
508.56744,-2048.05
509.04184,-2011.06
509.51627,-2130.21
509.99069,-2204.35
510.46512,-2090.8
510.93951,-2076.76
511.41394,-2328.37
511.88837,-2104.78
512.36279,-2038.7
512.83722,-2086.22
513.31165,-2082.96
513.78601,-1965.55
514.26044,-2139.62
514.73486,-2209.08
515.20929,-2067.47
515.68372,-2105.93
516.15814,-2237.13
516.63257,-2255.48
517.10699,-2239.67
517.58136,-2267.19
518.05579,-2229.05
518.53021,-2107.13
519.00464,-2304.81
519.47906,-2295.8
519.95349,-2029.94
520.42792,-2071.02
520.90234,-2064.51
521.37671,-2114.89
521.85114,-2146.45
522.32556,-2080.71
522.79999,-2175.78
523.27441,-2207.38
523.74884,-2198.81
524.22327,-2169.98
524.69769,-1842.14
525.17206,-2120.43
525.64648,-2281.61
526.12091,-2123.4
526.59534,-1977.36
527.06976,-2006.53
527.54419,-2096.78
528.01862,-2100.15
528.49304,-2052.25
528.96741,-2240.88
529.44183,-2387.16
529.91626,-2184.8
530.39069,-1999.15
530.86511,-2079.51
531.33954,-2313.2
531.81396,-1978.48
532.28839,-2125.2
532.76276,-2010.28
533.23718,-2025.37
533.71161,-2204.75
534.18604,-2207.49
534.66046,-2123.47
535.13489,-2063.66
535.60931,-2171.8
536.08374,-2187.27
536.55811,-2125.67
537.03253,-2100.3
537.50696,-2062.84
537.98138,-2067.2
538.45581,-2136.04
538.93024,-2162.56
539.40466,-2126
539.87909,-2075.88
540.35345,-2200.78
540.82788,-2225.89
541.30231,-2196.46
541.77673,-2236.91
542.25116,-2074.95
542.72559,-2024.78
543.20001,-2077.62
543.67444,-1990.65
544.1488,-2031.97
544.62323,-2008.83
545.09766,-1970.07
545.57208,-1963.13
546.04651,-1942.63
546.52094,-2011.59
546.99536,-2005.68
547.46979,-1937.33
547.94415,-2013.98
548.41858,-2015.12
548.89301,-1888.32
549.36743,-1958.46
549.84186,-1982.83
550.31628,-1913.36
550.79071,-2102.89
551.26514,-2013.41
551.7395,-1953.95
552.21393,-2013.76
552.68835,-1937.16
553.16278,-2173.18
553.63721,-2277.57
554.11163,-2034.13
554.58606,-1975.99
555.06049,-1985.31
555.53485,-2106.43
556.00928,-2076.97
556.4837,-2106.7
556.95813,-2077.84
557.43256,-2026.7
557.90698,-1928.18
558.38141,-2134.99
558.85583,-2178.5
559.3302,-2018.26
559.80463,-1941.35
560.27905,-1940.03
560.75348,-2101.56
561.22791,-2154.65
561.70233,-2088.79
562.17676,-2055.75
562.65118,-2005.52
563.12555,-1901.59
563.59998,-2065.64
564.0744,-2085.93
564.54883,-1956.59
565.02325,-1963.28
565.49768,-2018.27
565.97211,-1980.48
566.44653,-2159.25
566.9209,-2136.42
567.39532,-1816.45
567.86975,-2031.66
568.34418,-1947.61
568.8186,-2048.3
569.29303,-2095.15
569.76746,-2032.85
570.24188,-1937.64
570.71625,-1943.21
571.19067,-1945.11
571.6651,-1916.65
572.13953,-1944.39
572.61395,-1928.41
573.08838,-1955.97
573.56281,-2021.76
574.03723,-1937.05
574.5116,-1918.7
574.98602,-2154.17
575.46045,-2057.74
575.93488,-1959.32
576.4093,-2042.94
576.88373,-1965.07
577.35815,-1869.96
577.83258,-2039.45
578.30695,-2106.14
578.78137,-1913.13
579.2558,-1907.09
579.73022,-2134.94
580.20465,-2072.16
580.67908,-1944.19
581.1535,-2055.87
581.62793,-1907.75
582.10229,-2040.72
582.57672,-2002.29
583.05115,-2038.84
583.52557,-1895.42
584,-1840.71
584.47443,-1991.88
584.94885,-2093.75
585.42328,-2075.03
585.89764,-1849.83
586.37207,-1839.78
586.8465,-2003.76
587.32092,-1844.72
587.79535,-2018.47
588.26978,-2039.38
588.7442,-1803.45
589.21863,-1905.1
589.69299,-2066.32
590.16742,-2126.27
590.64185,-1999.09
591.11627,-1969.73
591.5907,-1945.29
592.06512,-1841.07
592.53955,-1939.17
593.01398,-1949.8
593.48834,-1924.21
593.96277,-2097.96
594.43719,-2087.12
594.91162,-1946.76
595.38605,-2003.35
595.86047,-2122.34
596.3349,-2010.69
596.80933,-2024.39
597.28369,-1984.92
597.75812,-1913.02
598.23254,-2061.16
598.70697,-2112.86
599.1814,-2023.85
599.65582,-1875.11
600.13025,-1807.17
600.60468,-1956.31
601.07904,-1986.21
601.55347,-1958.72
602.02789,-2070.45
602.50232,-2000.75
602.97675,-2036.2
603.45117,-2082
603.9256,-1914.07
604.40002,-1983.51
604.87439,-2056.62
605.34882,-2039.29
605.82324,-1991.82
606.29767,-1988.12
606.77209,-1983.38
607.24652,-1936.23
607.72095,-1975.6
608.19537,-1893.15
608.66974,-2092.17
609.14417,-2017.53
609.61859,-1949.56
610.09302,-2077.24
610.56744,-2040.52
611.04187,-2005.16
611.5163,-1882.18
611.99072,-1867.16
612.46509,-1901.44
612.93951,-1943.8
613.41394,-2022.93
613.88837,-1941.69
614.36279,-1822.83
614.83722,-1916.08
615.31165,-1877.04
615.78607,-1879.31
616.26044,-1936.42
616.73486,-1878.3
617.20929,-1790.99
617.68372,-1803.38
618.15814,-1998.75
618.63257,-2111.75
619.10699,-1966.36
619.58142,-1874.57
620.05579,-1878.88
620.53021,-1964.85
621.00464,-2143.5
621.47906,-1843.67
621.95349,-1807.6
622.42792,-1826.92
622.90234,-1852.79
623.37671,-2041.22
623.85114,-1836.04
624.32556,-1853.16
624.79999,-1996.1
625.27441,-1987.72
625.74884,-2039.74
626.22327,-2032.78
626.69769,-1952.23
627.17206,-2076.19
627.64648,-1990.28
628.12091,-1977.72
628.59534,-2228.72
629.06976,-2113.14
629.54419,-1898.1
630.01862,-1981.43
630.49304,-2060.1
630.96741,-2032.62
631.44183,-1999.11
631.91626,-2077.96
632.39069,-2043.44
632.86511,-1916.95
633.33954,-2096.72
633.81396,-2018.32
634.28839,-2014.62
634.76276,-2015.92
635.23718,-2011.26
635.71161,-2104.67
636.18604,-2042.53
636.66046,-2030.83
637.13489,-1990.39
637.60931,-1975.28
638.08374,-2053.63
638.55811,-2151.18
639.03253,-2101.01
639.50696,-1975.7
639.98138,-2091.82
640.45581,-2118.23
640.93024,-2028.49
641.40466,-2028.53
641.87909,-2110.54
642.35345,-2178.2
642.82788,-2206.99
643.30231,-2218.69
643.77673,-2142.17
644.25116,-2138.82
644.72559,-2031.56
645.20001,-2087.7
645.67444,-2059.29
646.1488,-1996.11
646.62323,-1985.18
647.09766,-2261.09
647.57208,-2169.89
648.04651,-2024.92
648.52094,-2265.61
648.99536,-2146.85
649.46979,-2039.72
649.94415,-2010.11
650.41858,-1918.55
650.89301,-2102.2
651.36743,-2033.9
651.84186,-2205.41
652.31628,-2064.59
652.79071,-2052.86
653.26514,-2215.19
653.7395,-2106.28
654.21393,-1937.53
654.68835,-2034.36
655.16278,-2176.01
655.63721,-2048.06
656.11163,-1964.6
656.58606,-2002.17
657.06049,-2099.92
657.53485,-2146.75
658.00928,-2229.91
658.4837,-2289.33
658.95813,-1903.89
659.43256,-2114.59
659.90698,-2155.02
660.38141,-2013.14
660.85583,-2137.12
661.3302,-2063.1
661.80463,-2177.89
662.27905,-2260.37
662.75348,-2245.67
663.22791,-2316.15
663.70233,-2139.95
664.17676,-1923.48
664.65118,-2002.96
665.12555,-2170.33
665.59998,-2165.55
666.0744,-2151.92
666.54883,-2114.17
667.02325,-2167.97
667.49768,-2192.01
667.97211,-2133.15
668.44653,-2102.02
668.9209,-1952.73
669.39532,-2128.67
669.86975,-2112.73
670.34418,-1967.51
670.8186,-2070.97
671.29303,-2127.38
671.76746,-1947.16
672.24188,-2052.79
672.71625,-2100
673.19067,-2113.95
673.6651,-2287.63
674.13953,-2127.95
674.61395,-2008.84
675.08838,-2159.19
675.56281,-2217.34
676.03723,-2035.06
676.5116,-2147.45
676.98602,-2203.17
677.46045,-2055.98
677.93488,-2082.48
678.4093,-2219.86
678.88373,-2132.37
679.35815,-2061.3
679.83258,-2086.5
680.30695,-2046.16
680.78137,-2168.67
681.2558,-2163.6
681.73022,-2005.18
682.20465,-2056.21
682.67908,-2134.45
683.1535,-2129.49
683.62793,-2207.77
684.10229,-2087.89
684.57672,-2031.84
685.05115,-2004.54
685.52557,-2134.7
686,-2243.58
686.47443,-2084.62
686.94885,-2058.54
687.42328,-2151.73
687.89764,-2139.46
688.37207,-2104.02
688.8465,-2073.6
689.32092,-2149.4
689.79535,-2132.26
690.26978,-1993.44
690.7442,-2006.43
691.21863,-2185.46
691.69299,-2270.89
692.16742,-2158.24
692.64185,-2136.76
693.11627,-2149.36
693.5907,-2109.65
694.06512,-2117.07
694.53955,-1996.48
695.01398,-2160.4
695.48834,-2107.79
695.96277,-2136.29
696.43719,-2157.18
696.91162,-2108.16
697.38605,-2046.08
697.86047,-2020.24
698.3349,-2171.82
698.80933,-2214.72
699.28369,-2143.89
699.75812,-2157.03
700.23254,-2145.22
700.70697,-2216.23
701.1814,-2095.25
701.65582,-2156.33
702.13025,-2221.45
702.60468,-2167.02
703.07904,-2108.82
703.55347,-2099.72
704.02789,-2110.11
704.50232,-2009.04
704.97675,-2094.04
705.45117,-2095.67
705.9256,-2120.72
706.40002,-2167.77
706.87439,-2130.01
707.34882,-2162.46
707.82324,-2125.03
708.29767,-2123.73
708.77209,-2259.9
709.24652,-2191.52
709.72095,-2019.8
710.19537,-2135.46
710.66974,-2246.71
711.14417,-2113.01
711.61859,-2197.99
712.09302,-2199.58
712.56744,-2160.78
713.04187,-2018.8
713.5163,-2100.62
713.99072,-2198.61
714.46509,-2073.11
714.93951,-2131.79
715.41394,-2137.12
715.88837,-2114.49
716.36279,-2167.21
716.83722,-2071
717.31165,-2133.84
717.78607,-2265.31
718.26044,-2256.36
718.73486,-2165.45
719.20929,-2122.94
719.68372,-2196.24
720.15814,-2295.23
720.63257,-2132.84
721.10699,-2271.4
721.58142,-2241.57
722.05579,-2082.3
722.53021,-2185.53
723.00464,-2177.78
723.47906,-2208.3
723.95349,-2203.6
724.42792,-2185.14
724.90234,-2088.5
725.37677,-2054.07
725.85114,-2159.05
726.32556,-2238.12
726.79999,-2052.78
727.27441,-2193.96
727.74884,-2326.47
728.22327,-2194.99
728.69769,-2136.83
729.17212,-2278.35
729.64648,-2291.98
730.12091,-2133.46
730.59534,-2089.63
731.06976,-2090.39
731.54419,-2097.42
732.01862,-2066.65
732.49304,-2239.1
732.96747,-2274.02
733.44183,-2090.59
733.91626,-2203.35
734.39069,-2038.83
734.86511,-1964.55
735.33954,-2280.98
735.81396,-2256.06
736.28839,-2063.93
736.76282,-2113.82
737.23718,-2171.2
737.71161,-2234.5
738.18604,-2113.62
738.66046,-2136.65
739.13489,-2256.64
739.60931,-2311.27
740.08374,-2205.4
740.55817,-2261.87
741.03253,-2309.49
741.50696,-2135.72
741.98138,-2248.32
742.45581,-2342.12
742.93024,-2179.78
743.40466,-2133.22
743.87909,-2168
744.35345,-2171.9
744.82788,-2224.28
745.30231,-2199.5
745.77673,-2163.95
746.25116,-2141.01
746.72559,-2168.76
747.20001,-2085.13
747.67444,-2131.4
748.1488,-2282.92
748.62323,-2151.08
749.09766,-2043.53
749.57208,-2235.42
750.04651,-2317.19
750.52094,-2161.75
750.99536,-2157.18
751.46979,-2355.14
751.94415,-2294.85
752.41858,-2030.3
752.89301,-2251.31
753.36743,-2128.49
753.84186,-2054.03
754.31628,-2090.07
754.79071,-2243.28
755.26514,-2169.3
755.7395,-2137.14
756.21393,-2299.97
756.68835,-2151.39
757.16278,-2337.35
757.63721,-2275.83
758.11163,-2130.88
758.58606,-2114.66
759.06049,-2177.77
759.53485,-2196.7
760.00928,-2287.22
760.4837,-2233.98
760.95813,-2109.33
761.43256,-2213.03
761.90698,-2250.79
762.38141,-2215.48
762.85583,-2285.22
763.3302,-2215.54
763.80463,-2093.17
764.27905,-2155.71
764.75348,-2227.63
765.22791,-2159.88
765.70233,-2209.57
766.17676,-2151.48
766.65118,-2090.52
767.12555,-2031.67
767.59998,-1911.25
768.0744,-2120.42
768.54883,-2033.29
769.02325,-2008.66
769.49768,-2097.62
769.97211,-2039.66
770.44653,-2269.22
770.9209,-2259.14
771.39532,-2154.42
771.86975,-2107.46
772.34418,-2057.6
772.8186,-2051.58
773.29303,-2206.66
773.76746,-2181.09
774.24188,-2054.94
774.71625,-2097.51
775.19067,-2159.02
775.6651,-2084.06
776.13953,-2247.68
776.61395,-2269.7
777.08838,-2045.14
777.56281,-2161.5
778.03723,-2156.79
778.5116,-2314.13
778.98602,-2159.94
779.46045,-2196.13
779.93488,-2238.67
780.4093,-2162.54
780.88373,-2233.97
781.35815,-2209.03
781.83258,-1989.48
782.30695,-2106.4
782.78137,-2201.88
783.2558,-2196.56
783.73022,-2233.86
784.20465,-2126.28
784.67908,-2299.73
785.1535,-2195.49
785.62793,-2087.89
786.10229,-2345.91
786.57672,-2216.82
787.05115,-2132.08
787.52557,-2309.91
788,-2301.41
788.47443,-2132.06
788.94885,-2143.41
789.42328,-2340.11
789.89764,-2336.97
790.37207,-2168.08
790.8465,-2264.67
791.32092,-2215.78
791.79535,-2167.34
792.26978,-2187.64
792.7442,-2220.57
793.21863,-2321.04
793.69299,-2273.24
794.16742,-2072.46
794.64185,-2167.56
795.11627,-2410.56
795.5907,-2188.57
796.06512,-2024.77
796.53955,-2206.62
797.01398,-2052.22
797.48834,-2209.62
797.96277,-2080.74
798.43719,-1916.57
798.91162,-1986.33
799.38605,-2147.71
799.86047,-2134.35
800.3349,-2088.57
800.80933,-2173.35
801.28369,-2174.95
801.75812,-2152.42
802.23254,-2240.91
802.70697,-2197.83
803.1814,-2118.71
803.65582,-2257.05
804.13025,-2206.23
804.60468,-1920.5
805.07904,-1996.75
805.55347,-2173.32
806.02789,-2110.29
806.50232,-2247.43
806.97675,-2102.71
807.45117,-2022.53
807.9256,-2197.95
808.40002,-2149.12
808.87439,-2105.62
809.34882,-2064.6
809.82324,-2072.27
810.29767,-2029.17
810.77209,-2104.72
811.24652,-2199.18
811.72095,-2273.7
812.19537,-2228.31
812.66974,-2354.51
813.14417,-2020.57
813.61859,-1692.77
814.09302,-1577.99
814.56744,-1251.98
815.04187,-850.94
815.5163,-712.469
815.99072,-879.772
816.46509,-1081.92
816.93951,-1402.83
817.41394,-1905.8
817.88837,-2109.01
818.36279,-2169.65
818.83722,-2199.95
819.31165,-2243.14
819.78607,-2236.51
820.26044,-2130
820.73486,-2139.13
821.20929,-2179.5
821.68372,-2149.18
822.15814,-2201.39
822.63257,-2233.47
823.10699,-2088.01
823.58142,-2126.32
824.05579,-2313.52
824.53021,-2196.61
825.00464,-2034.96
825.47906,-2080.02
825.95349,-2277.2
826.42792,-2132.4
826.90234,-2242.68
827.37677,-2263.72
827.85114,-2223.57
828.32556,-2223.07
828.79999,-2106.04
829.27441,-1995.76
829.74884,-1908
830.22327,-2000.43
830.69769,-1878.42
831.17212,-1887.24
831.64648,-2027.6
832.12091,-2076.51
832.59534,-2185.82
833.06976,-2056.84
833.54419,-2045.71
834.01862,-2108.82
834.49304,-2046.39
834.96747,-2266.94
835.44183,-2382.05
835.91626,-2170.29
836.39069,-2135.26
836.86511,-2331.6
837.33954,-2241.24
837.81396,-2378.66
838.28839,-2461.63
838.76282,-2216.32
839.23718,-2121.3
839.71161,-2194.06
840.18604,-2207.35
840.66046,-2093.5
841.13489,-2196.3
841.60931,-2298.3
842.08374,-2084.92
842.55817,-2156.71
843.03253,-2167.22
843.50696,-2025.28
843.98138,-1985.06
844.45581,-1868.48
844.93024,-1754.48
845.40466,-1579.99
845.87909,-1291.2
846.35352,-1433.38
846.82788,-1448.02
847.30231,-1576.59
847.77673,-1906.23
848.25116,-2003.26
848.72559,-2077.52
849.20001,-2151.95
849.67444,-2266.49
850.14886,-2307.01
850.62323,-2252.41
851.09766,-2223.48
851.57208,-2337.69
852.04651,-2230.06
852.52094,-2349.9
852.99536,-2408.59
853.46979,-2300.21
853.94421,-2157.69
854.41858,-2153.88
854.89301,-2117.44
855.36743,-1932.41
855.84186,-1837
856.31628,-1933.79
856.79071,-2255.05
857.26514,-2046.25
857.73956,-2097.71
858.21393,-2277.5
858.68835,-2232.21
859.16278,-2136.37
859.63721,-2043.32
860.11163,-2202.98
860.58606,-2287.66
861.06049,-2281.94
861.53491,-2255.97
862.00928,-2136.89
862.4837,-2181.52
862.95813,-2164.5
863.43256,-2047.9
863.90698,-2220.79
864.38141,-2264.91
864.85583,-2270.71
865.3302,-2265.35
865.80463,-2127.35
866.27905,-2221.4
866.75348,-2296.83
867.22791,-2202.51
867.70233,-2394.29
868.17676,-2169.03
868.65118,-2057.37
869.12555,-2212.58
869.59998,-2104.9
870.0744,-2283.88
870.54883,-2170.76
871.02325,-2156.95
871.49768,-2255.85
871.97211,-2305.47
872.44653,-2338.41
872.9209,-2268.07
873.39532,-2190.75
873.86975,-2254.15
874.34418,-2293.47
874.8186,-2239.78
875.29303,-2115.76
875.76746,-2114.79
876.24188,-2251.93
876.71625,-2248.51
877.19067,-2434.32
877.6651,-2347.84
878.13953,-2174.58
878.61395,-2152.61
879.08838,-2285.52
879.56281,-2145.69
880.03723,-2008.99
880.5116,-2231.52
880.98602,-2147.27
881.46045,-2081.75
881.93488,-2396.77
882.4093,-2299.31
882.88373,-2194.54
883.35815,-2124.23
883.83258,-2151.75
884.30695,-2321.05
884.78137,-2355.02
885.2558,-2214.25
885.73022,-2215.03
886.20465,-2256.18
886.67908,-2215.58
887.1535,-2194.03
887.62793,-2318.38
888.10229,-2154.34
888.57672,-2014.66
889.05115,-2167.51
889.52557,-2088.6
890,-2250.66
890.47443,-2236.58
890.94885,-2080.81
891.42328,-2187.55
891.89764,-2283.92
892.37207,-2229.19
892.8465,-2222.44
893.32092,-2181.28
893.79535,-2155.95
894.26978,-2168.6
894.7442,-2178.21
895.21863,-2269.25
895.69299,-2276.26
896.16742,-2187.29
896.64185,-2254.98
897.11627,-2198.6
897.5907,-2166.75
898.06512,-2175.62
898.53955,-2215.72
899.01398,-2165.64
899.48834,-2204.77
899.96277,-2177.66
900.43719,-2158.09
900.91162,-2226.62
901.38605,-2190.1
901.86047,-2219.22
902.3349,-2212.05
902.80933,-2145.77
903.28369,-2106.31
903.75812,-2072.12
904.23254,-2201.35
904.70697,-2197.63
905.1814,-2254.22
905.65582,-2221.04
906.13025,-2152.7
906.60468,-2149.52
907.07904,-2152.77
907.55347,-2200.09
908.02789,-2234.55
908.50232,-2204.81
908.97675,-2183.74
909.45117,-2084.41
909.9256,-2220.11
910.40002,-2254.1
910.87439,-2209.29
911.34882,-2235
911.82324,-2271.64
912.29767,-2200.89
912.77209,-2235.87
913.24652,-2105.82
913.72095,-1986.89
914.19537,-2019.94
914.66974,-1764.43
915.14417,-1698.68
915.61859,-1729.82
916.09302,-1622.67
916.56744,-1736.49
917.04187,-1835.31
917.5163,-2030.78
917.99072,-2125.81
918.46509,-2023.74
918.93951,-2069.79
919.41394,-2225.32
919.88837,-2204.68
920.36279,-2206.31
920.83722,-2293.05
921.31165,-2222.1
921.78607,-2171.77
922.26044,-2094.38
922.73486,-2236.69
923.20929,-2182.52
923.68372,-2032.91
924.15814,-2160.99
924.63257,-2165.49
925.10699,-2163.85
925.58142,-2147.25
926.05579,-2094.28
926.53021,-2157.83
927.00464,-2131.83
927.47906,-2006.51
927.95349,-2019.78
928.42792,-2193.01
928.90234,-2175.83
929.37677,-2070.39
929.85114,-2196.63
930.32556,-2451.82
930.79999,-2242.75
931.27441,-2180.66
931.74884,-2131.67
932.22327,-2119.08
932.69769,-2170.43
933.17212,-2163.52
933.64648,-2207.92
934.12091,-2066.61
934.59534,-1957.29
935.06976,-2334.18
935.54419,-2333.47
936.01862,-2150.77
936.49304,-2131.66
936.96747,-2161.19
937.44183,-2183.37
937.91626,-2121.75
938.39069,-2382.55
938.86511,-2251.52
939.33954,-2015.38
939.81396,-2064.09
940.28839,-2114.45
940.76282,-2073.17
941.23718,-2203.34
941.71161,-2333.07
942.18604,-2180.1
942.66046,-2263
943.13489,-2196.52
943.60931,-1907.3
944.08374,-2107.19
944.55817,-2349.73
945.03253,-2104.44
945.50696,-2112.83
945.98138,-2141.82
946.45581,-2155.36
946.93024,-2152.24
947.40466,-2137.73
947.87909,-2129.63
948.35352,-2263.61
948.82788,-2290.17
949.30231,-2023.5
949.77673,-2308.67
950.25116,-2284.67
950.72559,-2148.45
951.20001,-2274.88
951.67444,-2159.77
952.14886,-2098.5
952.62323,-2235.86
953.09766,-2222.12
953.57208,-2174.52
954.04651,-2165.07
954.52094,-2226.02
954.99536,-2268.21
955.46979,-2196.12
955.94421,-2150.62
956.41858,-2153.19
956.89301,-2196.33
957.36743,-2314.66
957.84186,-2201.67
958.31628,-2175.26
958.79071,-2221.85
959.26514,-2339.34
959.73956,-2216.23
960.21393,-2205.54
960.68835,-2308.3
961.16278,-2180.95
961.63721,-2135.15
962.11163,-2079.75
962.58606,-2103.18
963.06049,-2232.43
963.53491,-2283.85
964.00928,-2203.37
964.4837,-2083.35
964.95813,-2267.54
965.43256,-2328.43
965.90698,-2163.99
966.38141,-2201.52
966.85583,-2286.23
967.33026,-2224.79
967.80463,-2054.89
968.27905,-2007.38
968.75348,-2048.22
969.22791,-2054.99
969.70233,-2062.35
970.17676,-2069.54
970.65118,-2183.96
971.12561,-2056.82
971.59998,-2144.41
972.0744,-2254.59
972.54883,-2181.93
973.02325,-2218.49
973.49768,-2123.72
973.97211,-2197.34
974.44653,-2328.52
974.92096,-2210.99
975.39532,-2137.61
975.86975,-2275.48
976.34418,-2206.33
976.8186,-2153.72
977.29303,-2362.65
977.76746,-2247.29
978.24188,-2223.9
978.71631,-2060.01
979.19067,-2205.26
979.6651,-2387.21
980.13953,-2151.82
980.61395,-2173.61
981.08838,-2116.41
981.56281,-1942.85
982.03723,-2153.14
982.51166,-2267.69
982.98602,-1997.49
983.46045,-2001.17
983.93488,-2171.31
984.4093,-2038.16
984.88373,-2129.73
985.35815,-2347.42
985.83258,-2218.27
986.30701,-2236.78
986.78137,-2324.93
987.2558,-2256.09
987.73022,-2206.54
988.20465,-2313.72
988.67908,-2378.5
989.1535,-2150.74
989.62793,-2156.18
990.10229,-2306.09
990.57672,-2153.65
991.05115,-2095.51
991.52557,-2170.83
992,-2249.6
992.47443,-2207.16
992.94885,-2176.91
993.42328,-2160.96
993.89764,-2107.61
994.37207,-2141.68
994.8465,-2199.08
995.32092,-2190.31
995.79535,-2105.04
996.26978,-2214.07
996.7442,-2294.71
997.21863,-2148.15
997.69299,-2131.47
998.16742,-2289.22
998.64185,-2346.59
999.11627,-2102.61
999.5907,-2245.29
1000.0651,-2022.74
1000.5396,-2314.84
1001.014,-2361.1
1001.4883,-2195.12
1001.9628,-2223.05
1002.4372,-2124.99
1002.9116,-2080.13
1003.386,-2277.94
1003.8605,-2388.09
1004.3349,-2191.64
1004.8093,-2201.16
1005.2837,-2240.6
1005.7581,-2065.34
1006.2325,-2399.64
1006.707,-2322.47
1007.1814,-2009.84
1007.6558,-2098.45
1008.1302,-2314.14
1008.6047,-2218.81
1009.079,-2042.35
1009.5535,-2145.51
1010.0279,-2278.35
1010.5023,-2169.79
1010.9767,-2186.88
1011.4512,-2227.81
1011.9256,-2120.62
1012.4,-2257.76
1012.8744,-2270.8
1013.3488,-2147.22
1013.8232,-2109.36
1014.2977,-2233.45
1014.7721,-2258.42
1015.2465,-2383.44
1015.7209,-2114.66
1016.1954,-1860.5
1016.6697,-1823.14
1017.1442,-1769.95
1017.6186,-1666.4
1018.093,-1575.18
1018.5674,-1894.37
1019.0419,-2087.83
1019.5163,-2038.65
1019.9907,-2138.63
1020.4651,-2152.19
1020.9395,-2142.07
1021.4139,-2322.58
1021.8884,-2241.59
1022.3628,-2166.5
1022.8372,-2291.84
1023.3116,-2210.01
1023.7861,-2140.46
1024.2605,-2214.26
1024.7349,-2299.41
1025.2094,-2220.45
1025.6837,-2056.71
1026.1581,-2321.72
1026.6326,-2291.79
1027.1069,-2216.18
1027.5814,-2264.89
1028.0558,-2274.01
1028.5303,-2177.04
1029.0046,-2246.13
1029.4791,-2223.06
1029.9535,-2134.87
1030.4279,-2109.01
1030.9023,-2221.78
1031.3767,-2286.84
1031.8512,-2200.05
1032.3256,-2256.74
1032.8,-2246.7
1033.2744,-2144.29
1033.7488,-2274.77
1034.2233,-2229.64
1034.6976,-2267.89
1035.1721,-2165.12
1035.6465,-2135.75
1036.121,-2182.36
1036.5953,-2217.04
1037.0698,-2218.45
1037.5442,-2124.31
1038.0186,-2134.32
1038.493,-2194.58
1038.9674,-2176.8
1039.4419,-2078.03
1039.9163,-2028.31
1040.3907,-2132.81
1040.8651,-2143.92
1041.3395,-2099.65
1041.814,-2235.89
1042.2883,-2008.04
1042.7628,-2016.69
1043.2372,-2005.86
1043.7117,-2153.94
1044.186,-2312.23
1044.6605,-2173.86
1045.1349,-2300.21
1045.6093,-2280.61
1046.0837,-2135.92
1046.5581,-2315.12
1047.0326,-2340.02
1047.507,-2126.16
1047.9814,-2190.02
1048.4558,-2196.29
1048.9302,-2186.31
1049.4047,-2043.81
1049.879,-2176.16
1050.3535,-2217.67
1050.8279,-2191.86
1051.3024,-2235.36
1051.7767,-2240.18
1052.2512,-2180.52
1052.7256,-2131.94
1053.2,-2242.48
1053.6744,-2261.37
1054.1488,-2211.51
1054.6233,-2105.39
1055.0977,-2137.49
1055.5721,-1992.45
1056.0465,-2032.67
1056.5209,-2316.98
1056.9954,-2306.3
1057.4697,-2131.02
1057.9442,-2211.69
1058.4186,-2361.67
1058.8931,-2287.03
1059.3674,-2134.04
1059.8419,-2202.92
1060.3163,-2342.42
1060.7906,-2267.46
1061.2651,-2377.09
1061.7395,-2328.56
1062.214,-2272.83
1062.6884,-2172.58
1063.1628,-2185.51
1063.6372,-2183.83
1064.1116,-2119.93
1064.5861,-2139.97
1065.0604,-2333.3
1065.5349,-2417.07
1066.0093,-2331.29
1066.4838,-2249.79
1066.9581,-2298.24
1067.4326,-2377.51
1067.907,-2197.08
1068.3813,-2210.52
1068.8558,-2181.52
1069.3302,-2126.09
1069.8047,-2356.72
1070.2791,-2247.84
1070.7535,-2072.63
1071.2279,-2215.94
1071.7023,-2147.36
1072.1768,-2177.87
1072.6511,-2249.11
1073.1256,-2265.7
1073.6,-2227.57
1074.0745,-2054.85
1074.5488,-2152.1
1075.0233,-2300.18
1075.4977,-2246.06
1075.972,-2286.41
1076.4465,-2244.29
1076.9209,-1989.08
1077.3954,-2297.94
1077.8698,-2331.26
1078.3442,-2088.56
1078.8186,-2102.96
1079.293,-2141.15
1079.7675,-2275.89
1080.2418,-2276.8
1080.7163,-2268.87
1081.1907,-2328.78
1081.6652,-2198.77
1082.1395,-2178.15
1082.614,-2309.32
1083.0884,-2237.78
1083.5627,-2220.87
1084.0372,-2151.61
1084.5116,-2164.1
1084.9861,-2315.87
1085.4604,-2281.51
1085.9349,-2251.81
1086.4093,-2231.94
1086.8837,-2180.08
1087.3582,-2215.42
1087.8325,-2169
1088.307,-2166.88
1088.7814,-2147.55
1089.2559,-2215.21
1089.7302,-2065.58
1090.2047,-2181.52
1090.6791,-2206.99
1091.1534,-2157.82
1091.6279,-2214.28
1092.1023,-2163.98
1092.5768,-2153.56
1093.0511,-2246.65
1093.5256,-2255.17
1094,-2139.52
1094.4744,-2061.49
1094.9489,-2187.65
1095.4232,-2191.61
1095.8977,-2227.45
1096.3721,-2214.55
1096.8466,-2147.1
1097.3209,-2151.27
1097.7954,-2135.09
1098.2698,-2171.67
1098.7441,-2317.11
1099.2186,-2169.63
1099.693,-2174.15
1100.1675,-2231.16
1100.6418,-2149.18
1101.1163,-2233.55
1101.5907,-2254.31
1102.0651,-2211.26
1102.5396,-2232.23
1103.0139,-2118.64
1103.4884,-2308.3
1103.9628,-2292.26
1104.4373,-2211.68
1104.9116,-2198.84
1105.3861,-2147.69
1105.8605,-2186.07
1106.3348,-2146.01
1106.8093,-2187.74
1107.2837,-2199.39
1107.7582,-2112.25
1108.2325,-2184.09
1108.707,-2302.75
1109.1814,-2303.3
1109.6558,-2299.13
1110.1302,-2209.41
1110.6046,-2379.72
1111.0791,-2223.65
1111.5535,-2208.38
1112.028,-2112.78
1112.5023,-2220.19
1112.9767,-2302.23
1113.4512,-2235.72
1113.9255,-2196.08
1114.4,-2168.9
1114.8744,-2234.88
1115.3489,-2233.98
1115.8232,-2263.73
1116.2977,-2254.31
1116.7721,-2147.65
1117.2465,-2281.58
1117.7209,-2125.64
1118.1953,-2273.04
1118.6698,-2207.63
1119.1442,-2246.41
1119.6187,-2346.29
1120.093,-2266.74
1120.5674,-2154.02
1121.0419,-2186.4
1121.5162,-2184.11
1121.9907,-2183.93
1122.4651,-2262.61
1122.9396,-2191.76
1123.4139,-2230.89
1123.8884,-2277.56
1124.3628,-2196.78
1124.8372,-2296.75
1125.3116,-2252.83
1125.786,-2409.07
1126.2605,-2304.66
1126.7349,-2100.72
1127.2094,-2102.01
1127.6837,-2210.46
1128.1581,-2256.46
1128.6326,-2218.54
1129.1069,-2158.35
1129.5814,-2125.67
1130.0558,-2240.36
1130.5303,-2181.56
1131.0046,-2225.71
1131.4791,-2231.71
1131.9535,-2118.06
1132.4279,-2319.11
1132.9023,-2264.87
1133.3767,-2260.63
1133.8512,-2256.07
1134.3256,-2174.38
1134.8,-2267.39
1135.2744,-2296.41
1135.7488,-2221.54
1136.2233,-2236.74
1136.6976,-2230.2
1137.1721,-2189.28
1137.6465,-2170.66
1138.121,-2287.32
1138.5953,-2607.33
1139.0698,-2488.57
1139.5442,-2193.02
1140.0186,-2154.29
1140.493,-2142.02
1140.9674,-2219.71
1141.4419,-2151.39
1141.9163,-2230.87
1142.3907,-2224.27
1142.8651,-2238.61
1143.3395,-2371.45
1143.814,-2307.33
1144.2883,-2289.65
1144.7628,-2398.05
1145.2372,-2310.61
1145.7117,-2315.94
1146.186,-2332.82
1146.6605,-2351.7
1147.1349,-2224.28
1147.6093,-2216.4
1148.0837,-2181.49
1148.5581,-2280.19
1149.0326,-2308.02
1149.507,-2201.98
1149.9814,-2254.27
1150.4558,-2162
1150.9302,-2308.83
1151.4047,-2317.8
1151.879,-1960.22
1152.3535,-2259.87
1152.8279,-2319.97
1153.3024,-2287.3
1153.7767,-2147.89
1154.2512,-2266.22
1154.7256,-2202.85
1155.2,-2303.05
1155.6744,-2241.68
1156.1488,-2154.81
1156.6233,-2448.25
1157.0977,-2186.99
1157.5721,-2210.37
1158.0465,-2460.96
1158.5209,-2347.38
1158.9954,-2323.41
1159.4697,-2192.14
1159.9442,-2099.1
1160.4186,-2293.85
1160.8931,-2099.85
1161.3674,-2221.27
1161.8419,-2362.07
1162.3163,-2272.02
1162.7906,-2273.75
1163.2651,-2319.25
1163.7395,-2336.37
1164.214,-2180.79
1164.6884,-2140.61
1165.1628,-2261.12
1165.6372,-2302.11
1166.1116,-2259.83
1166.5861,-2161.14
1167.0604,-2354.22
1167.5349,-2322.42
1168.0093,-2111.28
1168.4838,-2388.03
1168.9581,-2329.87
1169.4326,-2192.78
1169.907,-2246.36
1170.3813,-2218.83
1170.8558,-2198.1
1171.3302,-2313.03
1171.8047,-2288.72
1172.2791,-2237.1
1172.7535,-2183.02
1173.2279,-2194.55
1173.7023,-2209.34
1174.1768,-2116.82
1174.6511,-2322.41
1175.1256,-2247.55
1175.6,-2197.82
1176.0745,-2202.68
1176.5488,-2240.54
1177.0233,-2168.9
1177.4977,-2274.89
1177.972,-2257.47
1178.4465,-2299.26
1178.9209,-2214.99
1179.3954,-2159.91
1179.8698,-2376.18
1180.3442,-2329.34
1180.8186,-2266.41
1181.293,-2192.98
1181.7675,-2210.53
1182.2418,-2345.45
1182.7163,-2374.05
1183.1907,-2301.82
1183.6652,-2332.72
1184.1395,-2347.22
1184.614,-2117.37
1185.0884,-2349.22
1185.5627,-2371.35
1186.0372,-2338.43
1186.5116,-2182.9
1186.9861,-2095.64
1187.4604,-2360
1187.9349,-2353.91
1188.4093,-2318.23
1188.8837,-2287.01
1189.3582,-2172.76
1189.8325,-2213.99
1190.307,-2295.78
1190.7814,-2246.92
1191.2559,-2189.21
1191.7302,-2035.66
1192.2047,-2237.61
1192.6791,-2161.09
1193.1534,-2436.9
1193.6279,-2382.59
1194.1023,-2221.49
1194.5768,-2320.73
1195.0511,-2236.51
1195.5256,-2352.63
1196,-2430.75
1196.4744,-2227.14
1196.9489,-2297.58
1197.4232,-2207.43
1197.8977,-2280.48
1198.3721,-2193.6
1198.8466,-2183.22
1199.3209,-2316.92
1199.7954,-2260.24
1200.2698,-2254.05
1200.7441,-2233.76
1201.2186,-2308.17
1201.693,-2361.53
1202.1675,-2249.15
1202.6418,-2241.3
1203.1163,-2342.92
1203.5907,-2194.96
1204.0651,-2030.51
1204.5396,-2442.73
1205.0139,-2318.52
1205.4884,-2281.07
1205.9628,-2447.25
1206.4373,-2420.25
1206.9116,-2251.5
1207.3861,-2414.74
1207.8605,-2362.38
1208.3348,-2319.34
1208.8093,-2399.01
1209.2837,-2346.43
1209.7582,-2275.78
1210.2325,-2170.59
1210.707,-2154.21
1211.1814,-2204.74
1211.6558,-2329.31
1212.1302,-2308.67
1212.6046,-2153.64
1213.0791,-2193.63
1213.5535,-2130.63
1214.028,-2326.45
1214.5023,-2426.58
1214.9768,-2309.56
1215.4512,-2276.23
1215.9255,-2336.08
1216.4,-2333.63
1216.8744,-2203.02
1217.3489,-2249.38
1217.8232,-2232.25
1218.2977,-2207.53
1218.7721,-2336.25
1219.2465,-2163
1219.7209,-2146.88
1220.1953,-2362.04
1220.6698,-2601.1
1221.1442,-2338.57
1221.6187,-2251.57
1222.093,-2367.41
1222.5675,-2452.01
1223.0419,-2392.08
1223.5162,-2266.82
1223.9907,-2197.95
1224.4651,-2238.45
1224.9396,-2481.64
1225.4139,-2350.25
1225.8884,-2149.69
1226.3628,-2234.14
1226.8372,-2300.55
1227.3116,-2346.68
1227.786,-2156.55
1228.2605,-2361.51
1228.7349,-2237.98
1229.2094,-2438.84
1229.6837,-2235.13
1230.1581,-2252.03
1230.6326,-2455.72
1231.1069,-2258.98
1231.5814,-2372.58
1232.0558,-2216.77
1232.5303,-2362.05
1233.0046,-2369.99
1233.4791,-2158.95
1233.9535,-2282.69
1234.4279,-2324.08
1234.9023,-2284.31
1235.3767,-2365.51
1235.8512,-2287.14
1236.3256,-2323.18
1236.8,-2185.87
1237.2744,-2108.05
1237.7488,-2211.19
1238.2233,-2235.3
1238.6976,-2207.02
1239.1721,-2256.08
1239.6465,-2326.91
1240.121,-2255.19
1240.5953,-2180.8
1241.0698,-2284.14
1241.5442,-2301.73
1242.0186,-2357.95
1242.493,-2265.74
1242.9674,-2231.18
1243.4419,-2201.86
1243.9163,-2241.94
1244.3907,-2307.36
1244.8651,-2244.61
1245.3395,-2196.98
1245.814,-2272.63
1246.2883,-2229.63
1246.7628,-2165.89
1247.2372,-2250.58
1247.7117,-2149.46
1248.186,-2264.74
1248.6605,-2204.75
1249.1349,-2234.05
1249.6093,-2243.1
1250.0837,-2112.88
1250.5581,-2214.08
1251.0326,-2421.38
1251.507,-2303.21
1251.9814,-2305.6
1252.4558,-2236.87
1252.9302,-2367.78
1253.4047,-2343.53
1253.879,-2184.64
1254.3535,-2440.89
1254.8279,-2384.08
1255.3024,-2149.71
1255.7767,-2346.48
1256.2512,-2182.47
1256.7256,-2354.37
1257.2,-2269.74
1257.6744,-2412.79
1258.1488,-2409.5
1258.6233,-2157.87
1259.0977,-2345.73
1259.5721,-2446.13
1260.0465,-2356.44
1260.5209,-2287.6
1260.9954,-2342.79
1261.4697,-2329.31
1261.9442,-2248.61
1262.4186,-2364.98
1262.8931,-2314.97
1263.3674,-2228.89
1263.8419,-2354.31
1264.3163,-2422.79
1264.7906,-2230.8
1265.2651,-2241.62
1265.7395,-2435.27
1266.214,-2361.6
1266.6884,-2224.09
1267.1628,-2251.15
1267.6372,-2407.7
1268.1116,-2399.28
1268.5861,-2362.1
1269.0604,-2430.7
1269.5349,-2415.72
1270.0093,-2359.11
1270.4838,-2253.06
1270.9581,-2234.9
1271.4326,-2199.98
1271.907,-2206.57
1272.3813,-2133.9
1272.8558,-2349.13
1273.3302,-2317.08
1273.8047,-2281.96
1274.2791,-2381.75
1274.7535,-2413.99
1275.2279,-2294.2
1275.7023,-2144.08
1276.1768,-2186.79
1276.6511,-2187.78
1277.1256,-2424.35
1277.6,-2499.01
1278.0745,-2119.51
1278.5488,-2159.51
1279.0233,-2309.56
1279.4977,-2183.7
1279.972,-2152.83
1280.4465,-2311.03
1280.9209,-2359.62
1281.3954,-2218.79
1281.8698,-2174.5
1282.3442,-2306.03
1282.8186,-2285.72
1283.293,-2345.21
1283.7675,-2522
1284.2418,-2204.55
1284.7163,-2159.47
1285.1907,-2360.25
1285.6652,-2146.12
1286.1395,-2261.21
1286.614,-2290.3
1287.0884,-2204.6
1287.5627,-2378.25
1288.0372,-2400.28
1288.5116,-2426.26
1288.9861,-2417.2
1289.4604,-2274.2
1289.9349,-2301.18
1290.4093,-2327.03
1290.8837,-2224.54
1291.3582,-2300.45
1291.8325,-2320.57
1292.307,-2387.82
1292.7814,-2442.37
1293.2559,-2406.55
1293.7302,-2236.57
1294.2047,-2281.93
1294.6791,-2045.25
1295.1534,-2139.01
1295.6279,-2252.65
1296.1023,-2204.06
1296.5768,-2211.29
1297.0511,-2134.07
1297.5256,-2218.19
1298,-2308.75
1298.4744,-2209.43
1298.9489,-2319.37
1299.4232,-2189.71
1299.8977,-2175.41
1300.3721,-2364.47
1300.8466,-2423.36
1301.3209,-2260.85
1301.7954,-2295.6
1302.2698,-2147.37
1302.7441,-2203.19
1303.2186,-2203.6
1303.693,-2298.73
1304.1675,-2246.89
1304.6418,-2278.78
1305.1163,-2209.37
1305.5907,-2110.08
1306.0651,-2339.65
1306.5396,-2296.83
1307.0139,-2165.16
1307.4884,-2276.1
1307.9628,-2271.36
1308.4373,-2301.53
1308.9116,-2321.89
1309.3861,-2190.89
1309.8605,-2169.17
1310.3348,-2233.15
1310.8093,-2235.29
1311.2837,-2344.67
1311.7582,-2283
1312.2325,-2324.47
1312.707,-2302.3
1313.1814,-2173.58
1313.6558,-2242.93
1314.1302,-2288.5
1314.6046,-2346.48
1315.0791,-2240.11
1315.5535,-2188.29
1316.028,-2140.8
1316.5023,-2302.63
1316.9768,-2335.45
1317.4512,-2196.22
1317.9255,-2352.55
1318.4,-2268.47
1318.8744,-2257.76
1319.3489,-2241.35
1319.8232,-2243.07
1320.2977,-2277.13
1320.7721,-2263.26
1321.2465,-2336.54
1321.7209,-2229.25
1322.1953,-2218.13
1322.6698,-2166.4
1323.1442,-2272.02
1323.6187,-2379.85
1324.093,-2315.15
1324.5675,-2284.37
1325.0419,-2270.62
1325.5162,-2382.52
1325.9907,-2370.05
1326.4651,-2209.48
1326.9396,-2255.43
1327.4139,-2301.25
1327.8884,-2293.55
1328.3628,-2266.48
1328.8372,-2144.15
1329.3116,-2172.94
1329.786,-2320.39
1330.2605,-2209.76
1330.7349,-2235.77
1331.2094,-2333.04
1331.6837,-2154.43
1332.1582,-2181.54
1332.6326,-2244.33
1333.1069,-2371.17
1333.5814,-2282.43
1334.0558,-2230.07
1334.5303,-2174.99
1335.0046,-2313.56
1335.4791,-2334.67
1335.9535,-2195.07
1336.4279,-2347.21
1336.9023,-2301.12
1337.3767,-2250.13
1337.8512,-2383.09
1338.3256,-2264.78
1338.8,-2306.81
1339.2744,-2218.21
1339.7489,-2295.03
1340.2233,-2273.72
1340.6976,-2276.3
1341.1721,-2232.25
1341.6465,-2218.84
1342.121,-2312.16
1342.5953,-2316.26
1343.0698,-2303.27
1343.5442,-2324.63
1344.0186,-2269.61
1344.493,-2241.47
1344.9674,-2164
1345.4419,-2154.5
1345.9163,-2480.12
1346.3907,-2303.37
1346.8651,-2265.81
1347.3396,-2167.37
1347.814,-2134
1348.2883,-2256.68
1348.7628,-2271.08
1349.2372,-2166.46
1349.7117,-2193.49
1350.186,-2309.72
1350.6605,-2315.96
1351.1349,-2209.73
1351.6093,-2330.59
1352.0837,-2506.2
1352.5581,-2280.31
1353.0326,-2219.42
1353.507,-2372.71
1353.9814,-2603.37
1354.4558,-2288.03
1354.9302,-2181.7
1355.4047,-2077.34
1355.879,-2270.4
1356.3535,-2099.6
1356.8279,-2337.99
1357.3024,-2379.91
1357.7767,-2282.24
1358.2512,-2309.13
1358.7256,-2144.23
1359.2,-2131.05
1359.6744,-2354.6
1360.1488,-2255.41
1360.6233,-2034.39
1361.0977,-2223.54
1361.5721,-2214.44
1362.0465,-2297.28
1362.5209,-2251.28
1362.9954,-2091.94
1363.4697,-2342.65
1363.9442,-2422.18
1364.4186,-2119.69
1364.8931,-2247.49
1365.3674,-2340.63
1365.8419,-2290.59
1366.3163,-2276.9
1366.7906,-2197.79
1367.2651,-2197.26
1367.7395,-2203.39
1368.214,-2237.28
1368.6884,-2322.75
1369.1628,-2288.52
1369.6372,-2302.47
1370.1116,-2114.98
1370.5861,-2273.13
1371.0604,-2324.19
1371.5349,-2242.92
1372.0093,-2236.68
1372.4838,-2332.88
1372.9581,-2352.9
1373.4326,-2243.62
1373.907,-2176.55
1374.3813,-2167.59
1374.8558,-2124.68
1375.3302,-2262.54
1375.8047,-2458.37
1376.2791,-2232.69
1376.7535,-2100.31
1377.2279,-2198.95
1377.7023,-2064.13
1378.1768,-2299.45
1378.6511,-2236.96
1379.1256,-2154.35
1379.6,-2308.81
1380.0745,-2357.96
1380.5488,-2241.4
1381.0233,-2170.5
1381.4977,-2320.24
1381.972,-2381.78
1382.4465,-2345.26
1382.9209,-2277.43
1383.3954,-2131.53
1383.8698,-2214.48
1384.3442,-2199.75
1384.8186,-2214.42
1385.293,-2140.88
1385.7675,-2354.27
1386.2418,-2204.91
1386.7163,-2208.77
1387.1907,-2361.62
1387.6652,-2290.75
1388.1395,-2357.81
1388.614,-2258.78
1389.0884,-2170.9
1389.5627,-2345.35
1390.0372,-2245.55
1390.5116,-2208.65
1390.9861,-2371.5
1391.4604,-2161.56
1391.9349,-2221.98
1392.4093,-2250.58
1392.8837,-2211.34
1393.3582,-2323.07
1393.8325,-2212.23
1394.307,-2210.16
1394.7814,-2515.66
1395.2559,-2245.95
1395.7302,-2262.29
1396.2047,-2298.11
1396.6791,-2288.79
1397.1534,-2365.32
1397.6279,-2304.1
1398.1023,-2163.97
1398.5768,-2135.67
1399.0511,-2194.54
1399.5256,-2180.3
1400,-2224.68
