Date and Time:                Mon Jan 17 21:32:49.000 2022
Software Version:             4.31.30023.0
Temperature (C):              -50
Model:                        DU420_BVF
Data Type:                    Counts (Bg Corrected)
Acquisition Mode:             Accumulate
Trigger Mode:                 Internal
Exposure Time (secs):         0.09999
Accumulate Cycle Time (secs): 0.09999
Frequency (Hz):               10.001
Number of Accumulations:      1000
Readout Mode:                 Full Vertical Binning
Horizontal binning:           1
Extended Dynamic Range:       off
Horizontally flipped:         false
Vertical Shift Speed (usecs): 8.25
Pixel Readout Time (usecs):   30.303
Serial Number:                22942
Pre-Amplifier Gain:           1.000000
Spurious Noise Filter Mode:   No Filter
Photon counted:               false
Data Averaging Filter Mode:   No Filter
KY328i:
Serial Number:                
Wavelength (nm):              889.526
Grating Groove Density (l/mm):150.012
Grating Blaze:                500nm
Output Flipper Port:          Direct
Filter:                       6-785 LP



380,-2903.22
380.4744,-2761.12
380.94882,-2827.03
381.42325,-2873.54
381.89767,-2831.04
382.37207,-2832.34
382.8465,-2775.19
383.32092,-2844.63
383.79535,-3125.66
384.26974,-3038.62
384.74417,-2825.56
385.2186,-2950.18
385.69302,-3074.69
386.16742,-3065.37
386.64185,-2961.05
387.11627,-2815.61
387.5907,-2839.64
388.06509,-2973.06
388.53952,-2897.02
389.01395,-2748.76
389.48837,-2838.2
389.96277,-2964.48
390.43719,-2858.29
390.91162,-2787.73
391.38605,-2901.6
391.86044,-2804.59
392.33487,-2794.68
392.8093,-3070.81
393.28372,-2950.08
393.75812,-2927.14
394.23254,-2941.49
394.70697,-2847.47
395.1814,-2933
395.65579,-2883.05
396.13022,-2972.3
396.60464,-2932.26
397.07907,-2805.32
397.55347,-2990.18
398.02789,-2810.11
398.50232,-3034.69
398.97675,-3086.86
399.45114,-2872.07
399.92557,-2931.24
400.39999,-2883.83
400.87442,-2753.86
401.34882,-2827.91
401.82324,-2870.76
402.29767,-2915.74
402.77209,-2825.83
403.24649,-2817.31
403.72092,-2912.29
404.19534,-2768.36
404.66977,-2754.88
405.14417,-2792.03
405.61859,-2847.1
406.09302,-2961.86
406.56744,-2929.64
407.04184,-2744.64
407.51627,-2180.51
407.99069,-1190.52
408.46512,-251.309
408.93951,312.342
409.41394,494.527
409.88837,449.346
410.36279,-22.1895
410.83719,-1067.33
411.31161,-2119.03
411.78604,-2620.12
412.26047,-2803.95
412.73486,-2887.6
413.20929,-2812.67
413.68372,-2709.61
414.15814,-2651.19
414.63254,-2675.46
415.10696,-2745.64
415.58139,-2855.76
416.05582,-3013.1
416.53021,-2926.8
417.00464,-2992.27
417.47906,-2841.14
417.95349,-2962
418.42789,-3137.34
418.90231,-3033.22
419.37674,-2882.06
419.85117,-2748.38
420.32556,-2817.92
420.79999,-2794.63
421.27441,-2867.1
421.74884,-3082.95
422.22324,-2828.35
422.69766,-2811.64
423.17209,-3009.79
423.64651,-2862.79
424.12091,-2951.69
424.59534,-2822.26
425.06976,-2839.89
425.54419,-2977.46
426.01859,-2813.9
426.49301,-2841.14
426.96744,-2817.62
427.44186,-2767.72
427.91626,-2869.4
428.39069,-2890.48
428.86511,-2850.52
429.33954,-2836.66
429.81393,-2879.71
430.28836,-2873.6
430.76279,-2946.29
431.23721,-2912.42
431.71161,-2937.6
432.18604,-3019.25
432.66046,-2989.89
433.13489,-2982.51
433.60928,-2985.43
434.08371,-2927.68
434.55814,-2815.44
435.03256,-2924.86
435.50696,-2860.03
435.98138,-2656.47
436.45581,-2738.27
436.93024,-3052.76
437.40463,-2881.19
437.87906,-2762.26
438.35349,-2934.39
438.82791,-2963.55
439.30231,-2891.47
439.77673,-2783.04
440.25116,-2804.04
440.72559,-3029.26
441.19998,-2787.59
441.67441,-3038.61
442.14883,-2979.95
442.62326,-2860.69
443.09766,-2970.49
443.57208,-2772.83
444.04651,-2685.92
444.52094,-2848.66
444.99533,-3002.46
445.46976,-2962.42
445.94418,-2772.67
446.41861,-2818.17
446.89301,-2910.76
447.36743,-2830.06
447.84186,-2765.53
448.31628,-2765.58
448.79068,-2764.72
449.26511,-2989.31
449.73953,-2914.04
450.21396,-2675.82
450.68835,-2768.81
451.16278,-2706.49
451.63721,-2757.77
452.11163,-2938.69
452.58603,-2876.58
453.06046,-2873.05
453.53488,-2916.21
454.00931,-2717.89
454.4837,-2765.95
454.95813,-2865.05
455.43256,-2812.67
455.90698,-2866.16
456.38138,-2818.3
456.8558,-2737.89
457.33023,-2945.99
457.80466,-3008.08
458.27905,-2770.59
458.75348,-2764.67
459.22791,-2831.11
459.70233,-2895.56
460.17673,-2855.34
460.65115,-2830.73
461.12558,-2907.69
461.60001,-2753.44
462.0744,-2699.3
462.54883,-2858.86
463.02325,-2969.81
463.49768,-2989.33
463.97208,-2869.23
464.4465,-2760.17
464.92093,-2839.89
465.39536,-2819
465.86975,-2732.82
466.34418,-2768.69
466.8186,-2874.75
467.29303,-2795.89
467.76743,-2804.12
468.24185,-2896.17
468.71628,-2787.83
469.1907,-2795.01
469.6651,-2811.81
470.13953,-2688.99
470.61395,-2781.5
471.08838,-2879.04
471.56277,-2683.96
472.0372,-2773.08
472.51163,-2785.93
472.98605,-2743.36
473.46045,-2863.21
473.93488,-2738.02
474.4093,-2714.66
474.88373,-2827.35
475.35812,-2742.23
475.83255,-2885.97
476.30698,-2885.85
476.7814,-2813.89
477.2558,-2697.57
477.73022,-2763.27
478.20465,-2841.66
478.67908,-2790.49
479.15347,-2805.79
479.6279,-2776.77
480.10233,-2720.29
480.57675,-2668.44
481.05115,-2743.31
481.52557,-2835.91
482,-2787.93
482.47443,-2767.23
482.94882,-2789.75
483.42325,-2812.56
483.89767,-2766.76
484.3721,-2747.61
484.8465,-2828.7
485.32092,-2787.77
485.79535,-2770.55
486.26978,-2797.06
486.74417,-2725.45
487.2186,-2766.27
487.69302,-2689.08
488.16745,-2665.35
488.64185,-2717.53
489.11627,-2738.14
489.5907,-2716.35
490.06512,-2716.51
490.53952,-2734.43
491.01395,-2730.47
491.48837,-2643.93
491.9628,-2729.25
492.43719,-2772.73
492.91162,-2627.24
493.38605,-2681.35
493.86047,-2739.81
494.33487,-2538.4
494.8093,-2513.43
495.28372,-2659.33
495.75815,-2547.81
496.23254,-2745.43
496.70697,-2714.3
497.1814,-2556.93
497.65582,-2657.02
498.13022,-2543.02
498.60464,-2679.37
499.07907,-2540.85
499.5535,-2480.31
500.02789,-2417.8
500.50232,-2525.66
500.97675,-2541.48
501.45114,-2611.39
501.92557,-2627.78
502.39999,-2545.7
502.87442,-2549.75
503.34882,-2584.57
503.82324,-2555.55
504.29767,-2510.67
504.77209,-2506.88
505.24649,-2439.39
505.72092,-2399.41
506.19534,-2481.84
506.66977,-2395.97
507.14417,-2420.38
507.61859,-2448.01
508.09302,-2436.97
508.56744,-2398.12
509.04184,-2445.93
509.51627,-2519.33
509.99069,-2345.78
510.46512,-2167.61
510.93951,-2378.97
511.41394,-2560.35
511.88837,-2311.01
512.36279,-2313.34
512.83722,-2300.7
513.31165,-2251.88
513.78601,-2259.87
514.26044,-2268.78
514.73486,-2266.23
515.20929,-2190.8
515.68372,-2192.83
516.15814,-2273.03
516.63257,-2175.98
517.10699,-2180.88
517.58136,-2381.86
518.05579,-2094.8
518.53021,-2124.32
519.00464,-2278.57
519.47906,-2310.42
519.95349,-2240.43
520.42792,-2020.89
520.90234,-2072.96
521.37671,-2131.56
521.85114,-1913.23
522.32556,-2005.35
522.79999,-2191.84
523.27441,-2105.42
523.74884,-2123.81
524.22327,-2106.44
524.69769,-1777.68
525.17206,-1868.31
525.64648,-2119.14
526.12091,-1962.05
526.59534,-1928.71
527.06976,-1917.74
527.54419,-1871.41
528.01862,-1856.67
528.49304,-1754.85
528.96741,-1812.82
529.44183,-1930.39
529.91626,-1867.74
530.39069,-1742.64
530.86511,-1935.49
531.33954,-1939.43
531.81396,-1834.64
532.28839,-1893.89
532.76276,-1824.64
533.23718,-1750.21
533.71161,-1736.28
534.18604,-1736.16
534.66046,-1692.75
535.13489,-1664.37
535.60931,-1730.46
536.08374,-1698.33
536.55811,-1708.7
537.03253,-1702.68
537.50696,-1594.35
537.98138,-1595.94
538.45581,-1724.79
538.93024,-1587.6
539.40466,-1592.63
539.87909,-1707.3
540.35345,-1657.83
540.82788,-1445.9
541.30231,-1523.11
541.77673,-1795.32
542.25116,-1566.76
542.72559,-1339.86
543.20001,-1512.49
543.67444,-1444.38
544.1488,-1480.7
544.62323,-1498.58
545.09766,-1466.26
545.57208,-1397.85
546.04651,-1347.22
546.52094,-1412.74
546.99536,-1437.68
547.46979,-1391.84
547.94415,-1401.47
548.41858,-1405.9
548.89301,-1360.16
549.36743,-1379.14
549.84186,-1373.13
550.31628,-1380.97
550.79071,-1477.45
551.26514,-1462.28
551.7395,-1399.74
552.21393,-1387.03
552.68835,-1313.83
553.16278,-1364.41
553.63721,-1435.46
554.11163,-1366.15
554.58606,-1351.58
555.06049,-1222.73
555.53485,-1317.86
556.00928,-1558.84
556.4837,-1340.64
556.95813,-1292.45
557.43256,-1432.44
557.90698,-1253.54
558.38141,-1380.02
558.85583,-1374.36
559.3302,-1397.25
559.80463,-1391.46
560.27905,-1117.91
560.75348,-1352.17
561.22791,-1497.75
561.70233,-1367.56
562.17676,-1275.55
562.65118,-1132.83
563.12555,-1174.13
563.59998,-1333.61
564.0744,-1341.96
564.54883,-1124.17
565.02325,-1199.27
565.49768,-1238.77
565.97211,-1167.05
566.44653,-1350.16
566.9209,-1384.47
567.39532,-1222.77
567.86975,-1325.98
568.34418,-1309.64
568.8186,-1433.8
569.29303,-1320.04
569.76746,-1169.8
570.24188,-1139.64
570.71625,-1106.4
571.19067,-1317.3
571.6651,-1345.91
572.13953,-1147.6
572.61395,-1186.05
573.08838,-1284.14
573.56281,-1319.94
574.03723,-1185.17
574.5116,-1065.83
574.98602,-1342.12
575.46045,-1326.55
575.93488,-1229.95
576.4093,-1339.88
576.88373,-1192.52
577.35815,-1083.04
577.83258,-1174.59
578.30695,-1299.62
578.78137,-1317.66
579.2558,-1262.32
579.73022,-1454.89
580.20465,-1388.1
580.67908,-1314.41
581.1535,-1434.75
581.62793,-1270.24
582.10229,-1519.44
582.57672,-1422.4
583.05115,-1579.25
583.52557,-1354.95
584,-1244.04
584.47443,-1396.92
584.94885,-1405.72
585.42328,-1495.3
585.89764,-1443.03
586.37207,-1346.37
586.8465,-1503.29
587.32092,-1414.29
587.79535,-1353.55
588.26978,-1467.93
588.7442,-1443.11
589.21863,-1344.35
589.69299,-1453.04
590.16742,-1524.65
590.64185,-1482.97
591.11627,-1499.15
591.5907,-1435.18
592.06512,-1370.03
592.53955,-1466.7
593.01398,-1520.83
593.48834,-1537.23
593.96277,-1514.72
594.43719,-1656.24
594.91162,-1542.84
595.38605,-1548.99
595.86047,-1628.8
596.3349,-1624.48
596.80933,-1658.78
597.28369,-1543.86
597.75812,-1427.9
598.23254,-1570.81
598.70697,-1710.58
599.1814,-1593.18
599.65582,-1498.07
600.13025,-1570.88
600.60468,-1592.19
601.07904,-1668.73
601.55347,-1606.22
602.02789,-1709.87
602.50232,-1727.2
602.97675,-1748.91
603.45117,-1713.27
603.9256,-1647.48
604.40002,-1874.56
604.87439,-1927.67
605.34882,-1812.13
605.82324,-1699.92
606.29767,-1716.45
606.77209,-1711.46
607.24652,-1722.74
607.72095,-1683.02
608.19537,-1711.52
608.66974,-1592.69
609.14417,-1733.87
609.61859,-1821.99
610.09302,-1756.48
610.56744,-1883.1
611.04187,-1817.16
611.5163,-1686.13
611.99072,-1835.8
612.46509,-1879.9
612.93951,-1747.08
613.41394,-1669.11
613.88837,-1868.85
614.36279,-1873.33
614.83722,-1868.07
615.31165,-1664.25
615.78607,-1765.72
616.26044,-1921.54
616.73486,-1783.81
617.20929,-1856.98
617.68372,-1941.61
618.15814,-1831.76
618.63257,-1932.22
619.10699,-1925.17
619.58142,-1959.34
620.05579,-2111.01
620.53021,-2064.5
621.00464,-1876.7
621.47906,-1718.02
621.95349,-1808.89
622.42792,-1884.32
622.90234,-1892.09
623.37671,-1866.05
623.85114,-1845.98
624.32556,-1923.3
624.79999,-1811.21
625.27441,-1861.06
625.74884,-2122.21
626.22327,-2169.35
626.69769,-2056.59
627.17206,-2184.91
627.64648,-2075.03
628.12091,-2015.34
628.59534,-2112.08
629.06976,-2007.18
629.54419,-2066.18
630.01862,-2058.39
630.49304,-2086.32
630.96741,-2173.46
631.44183,-2111.43
631.91626,-2282.87
632.39069,-2185.87
632.86511,-2052.57
633.33954,-2265.76
633.81396,-2243.03
634.28839,-2284.38
634.76276,-2275.23
635.23718,-2229.66
635.71161,-2295.88
636.18604,-2165.6
636.66046,-2132.68
637.13489,-2222
637.60931,-2154.72
638.08374,-2236.91
638.55811,-2256.1
639.03253,-2236.2
639.50696,-2250.95
639.98138,-2248.68
640.45581,-2274.82
640.93024,-2379.2
641.40466,-2249.64
641.87909,-2276.06
642.35345,-2388.99
642.82788,-2346.59
643.30231,-2424.69
643.77673,-2235.3
644.25116,-2380.47
644.72559,-2444.54
645.20001,-2311.32
645.67444,-2267.53
646.1488,-2192.58
646.62323,-2213.25
647.09766,-2473.71
647.57208,-2544.1
648.04651,-2430.57
648.52094,-2448.65
648.99536,-2502.47
649.46979,-2453.87
649.94415,-2389.54
650.41858,-2372.84
650.89301,-2364.89
651.36743,-2476.51
651.84186,-2624.06
652.31628,-2368.69
652.79071,-2327.04
653.26514,-2447.2
653.7395,-2413.97
654.21393,-2373.65
654.68835,-2304.13
655.16278,-2372.01
655.63721,-2467.59
656.11163,-2404.51
656.58606,-2446.8
657.06049,-2531.81
657.53485,-2451.92
658.00928,-2604.98
658.4837,-2573.49
658.95813,-2254.9
659.43256,-2379.36
659.90698,-2399.14
660.38141,-2304.96
660.85583,-2423.31
661.3302,-2413.98
661.80463,-2526.52
662.27905,-2693.2
662.75348,-2495.37
663.22791,-2491.56
663.70233,-2546.09
664.17676,-2469.94
664.65118,-2461.13
665.12555,-2507.54
665.59998,-2438.07
666.0744,-2437.02
666.54883,-2473.72
667.02325,-2464.98
667.49768,-2567.3
667.97211,-2607.56
668.44653,-2471.58
668.9209,-2507.2
669.39532,-2577.35
669.86975,-2549.27
670.34418,-2504.41
670.8186,-2525.79
671.29303,-2379.12
671.76746,-2286.59
672.24188,-2481.25
672.71625,-2632.97
673.19067,-2702.92
673.6651,-2628.96
674.13953,-2506.63
674.61395,-2556.26
675.08838,-2670.06
675.56281,-2696.56
676.03723,-2458.33
676.5116,-2625.42
676.98602,-2621.29
677.46045,-2497.32
677.93488,-2570.58
678.4093,-2618.34
678.88373,-2450.25
679.35815,-2486.01
679.83258,-2588.1
680.30695,-2470.72
680.78137,-2718.98
681.2558,-2618.96
681.73022,-2487.78
682.20465,-2654.1
682.67908,-2647.42
683.1535,-2535.27
683.62793,-2606.66
684.10229,-2469.49
684.57672,-2477.59
685.05115,-2434.86
685.52557,-2471.06
686,-2573.37
686.47443,-2534.33
686.94885,-2561.79
687.42328,-2494.41
687.89764,-2575.64
688.37207,-2608.12
688.8465,-2477.33
689.32092,-2475.9
689.79535,-2474.45
690.26978,-2520.51
690.7442,-2563.19
691.21863,-2631.38
691.69299,-2698.33
692.16742,-2610.87
692.64185,-2534.71
693.11627,-2651.23
693.5907,-2627.25
694.06512,-2631.53
694.53955,-2543.05
695.01398,-2603.13
695.48834,-2622.57
695.96277,-2581.99
696.43719,-2557.81
696.91162,-2543.91
697.38605,-2528.06
697.86047,-2544.31
698.3349,-2607.81
698.80933,-2638.27
699.28369,-2562.65
699.75812,-2573.71
700.23254,-2581.15
700.70697,-2614.45
701.1814,-2657.11
701.65582,-2576.24
702.13025,-2739.75
702.60468,-2697
703.07904,-2541.46
703.55347,-2595.93
704.02789,-2492.61
704.50232,-2461.52
704.97675,-2582.99
705.45117,-2530.3
705.9256,-2502.09
706.40002,-2588.75
706.87439,-2507.53
707.34882,-2516.6
707.82324,-2640.34
708.29767,-2669.77
708.77209,-2571.73
709.24652,-2524.59
709.72095,-2516.34
710.19537,-2578.12
710.66974,-2610.51
711.14417,-2551.77
711.61859,-2709.65
712.09302,-2615.16
712.56744,-2529.75
713.04187,-2486.08
713.5163,-2512.17
713.99072,-2561.09
714.46509,-2507.28
714.93951,-2616.98
715.41394,-2549.23
715.88837,-2532.68
716.36279,-2652.18
716.83722,-2531.22
717.31165,-2560.78
717.78607,-2695.47
718.26044,-2685.7
718.73486,-2558.39
719.20929,-2668.08
719.68372,-2610.18
720.15814,-2526.53
720.63257,-2523.08
721.10699,-2715.54
721.58142,-2714.33
722.05579,-2485.41
722.53021,-2526.36
723.00464,-2622.05
723.47906,-2528.2
723.95349,-2502.39
724.42792,-2514.16
724.90234,-2547.06
725.37677,-2605.26
725.85114,-2536.43
726.32556,-2646.37
726.79999,-2637.41
727.27441,-2667.67
727.74884,-2716.04
728.22327,-2594.43
728.69769,-2525.4
729.17212,-2647.28
729.64648,-2678.71
730.12091,-2570.52
730.59534,-2589.63
731.06976,-2660.23
731.54419,-2567.49
732.01862,-2507.27
732.49304,-2715.06
732.96747,-2700.67
733.44183,-2611.77
733.91626,-2711.3
734.39069,-2503.11
734.86511,-2559.73
735.33954,-2805.27
735.81396,-2670.49
736.28839,-2593.77
736.76282,-2652.61
737.23718,-2547.36
737.71161,-2644.73
738.18604,-2632.49
738.66046,-2618.1
739.13489,-2820.38
739.60931,-2732.96
740.08374,-2519.18
740.55817,-2565.45
741.03253,-2675.67
741.50696,-2708.99
741.98138,-2681.54
742.45581,-2519.63
742.93024,-2522.14
743.40466,-2645.97
743.87909,-2734.15
744.35345,-2742.03
744.82788,-2554.75
745.30231,-2736.68
745.77673,-2697.64
746.25116,-2759.88
746.72559,-2717.16
747.20001,-2498.39
747.67444,-2575.37
748.1488,-2743.83
748.62323,-2642.13
749.09766,-2471.49
749.57208,-2581.41
750.04651,-2745.86
750.52094,-2624.05
750.99536,-2514.83
751.46979,-2622.74
751.94415,-2786.88
752.41858,-2548.32
752.89301,-2525.64
753.36743,-2658.84
753.84186,-2696.75
754.31628,-2627.68
754.79071,-2589.95
755.26514,-2606.2
755.7395,-2618.53
756.21393,-2670.14
756.68835,-2681.93
757.16278,-2639.01
757.63721,-2697.67
758.11163,-2721.09
758.58606,-2657.95
759.06049,-2666.13
759.53485,-2684.65
760.00928,-2671.34
760.4837,-2721.63
760.95813,-2656.03
761.43256,-2686.81
761.90698,-2663.56
762.38141,-2599.55
762.85583,-2740.12
763.3302,-2699.88
763.80463,-2589.13
764.27905,-2706.88
764.75348,-2579.16
765.22791,-2788.76
765.70233,-2817.87
766.17676,-2641.18
766.65118,-2576.09
767.12555,-2579.77
767.59998,-2545.99
768.0744,-2665.43
768.54883,-2604.65
769.02325,-2565.34
769.49768,-2664.02
769.97211,-2609.34
770.44653,-2708.87
770.9209,-2844.78
771.39532,-2640.02
771.86975,-2637.6
772.34418,-2623.23
772.8186,-2658.12
773.29303,-2668.95
773.76746,-2667.67
774.24188,-2613.23
774.71625,-2568.12
775.19067,-2677.9
775.6651,-2647
776.13953,-2706.09
776.61395,-2685.29
777.08838,-2536.34
777.56281,-2678.28
778.03723,-2689.55
778.5116,-2778.14
778.98602,-2726.43
779.46045,-2730.25
779.93488,-2739.79
780.4093,-2669.43
780.88373,-2734.44
781.35815,-2704.05
781.83258,-2549.35
782.30695,-2543
782.78137,-2613.71
783.2558,-2773.03
783.73022,-2687.05
784.20465,-2600.69
784.67908,-2820.45
785.1535,-2822.13
785.62793,-2704.19
786.10229,-3016.8
786.57672,-2724.64
787.05115,-2531.36
787.52557,-2679.26
788,-2693.6
788.47443,-2637.53
788.94885,-2716.04
789.42328,-2900.26
789.89764,-2845.69
790.37207,-2680.37
790.8465,-2709.45
791.32092,-2572.14
791.79535,-2691.54
792.26978,-2682.4
792.7442,-2752.22
793.21863,-2775.62
793.69299,-2735.61
794.16742,-2651.58
794.64185,-2736.4
795.11627,-2854.42
795.5907,-2645.48
796.06512,-2633.04
796.53955,-2692.56
797.01398,-2346.46
797.48834,-2731.08
797.96277,-2748.31
798.43719,-2496.18
798.91162,-2506.35
799.38605,-2751.83
799.86047,-2679.73
800.3349,-2469.2
800.80933,-2595.5
801.28369,-2777.19
801.75812,-2709.71
802.23254,-2788.33
802.70697,-2735.5
803.1814,-2508.68
803.65582,-2723.36
804.13025,-2808.42
804.60468,-2558.05
805.07904,-2454.92
805.55347,-2761.2
806.02789,-2768.31
806.50232,-2682.1
806.97675,-2598.1
807.45117,-2575.38
807.9256,-2807.96
808.40002,-2936.18
808.87439,-2706.09
809.34882,-2597.46
809.82324,-2743.05
810.29767,-2743.88
810.77209,-2740.01
811.24652,-2797.09
811.72095,-2785.73
812.19537,-2710.95
812.66974,-2849.27
813.14417,-2584.83
813.61859,-2374.28
814.09302,-2185.39
814.56744,-1930.32
815.04187,-1828.67
815.5163,-1699.35
815.99072,-1813.28
816.46509,-2000.06
816.93951,-2209.69
817.41394,-2535.98
817.88837,-2598.35
818.36279,-2776.32
818.83722,-2850.04
819.31165,-2653.16
819.78607,-2858.31
820.26044,-2806.45
820.73486,-2662.97
821.20929,-2765.29
821.68372,-2763.43
822.15814,-2683.37
822.63257,-2664.99
823.10699,-2604.32
823.58142,-2582
824.05579,-2550.89
824.53021,-2682.91
825.00464,-2689.98
825.47906,-2733.45
825.95349,-2644.19
826.42792,-2608.11
826.90234,-2765.23
827.37677,-2788.21
827.85114,-2749.82
828.32556,-2740.46
828.79999,-2608.18
829.27441,-2577.17
829.74884,-2652.98
830.22327,-2504.49
830.69769,-2615.18
831.17212,-2493.96
831.64648,-2446.79
832.12091,-2523.51
832.59534,-2629.69
833.06976,-2632.75
833.54419,-2525.04
834.01862,-2602.95
834.49304,-2645.15
834.96747,-2674.15
835.44183,-2774.35
835.91626,-2619.97
836.39069,-2625.44
836.86511,-2804.35
837.33954,-2679.69
837.81396,-2851.16
838.28839,-2883.6
838.76282,-2642.06
839.23718,-2729.13
839.71161,-2612.58
840.18604,-2652.26
840.66046,-2871.47
841.13489,-2753.46
841.60931,-2693.01
842.08374,-2679.69
842.55817,-2718.37
843.03253,-2709.7
843.50696,-2634.69
843.98138,-2583.29
844.45581,-2333.67
844.93024,-2379.83
845.40466,-2280.69
845.87909,-2123.17
846.35352,-2212.57
846.82788,-2252.75
847.30231,-2330.81
847.77673,-2541.74
848.25116,-2701.86
848.72559,-2710.23
849.20001,-2708.06
849.67444,-2804.52
850.14886,-2730.5
850.62323,-2788.86
851.09766,-2799.06
851.57208,-2809.08
852.04651,-2735.84
852.52094,-2807.57
852.99536,-2676.93
853.46979,-2812.23
853.94421,-2775.18
854.41858,-2569.26
854.89301,-2670.85
855.36743,-2685.49
855.84186,-2593.15
856.31628,-2632.93
856.79071,-2601.13
857.26514,-2708.45
857.73956,-2690.25
858.21393,-2747.52
858.68835,-2868.85
859.16278,-2613.54
859.63721,-2566.46
860.11163,-2743.27
860.58606,-2748.86
861.06049,-2865.98
861.53491,-2871.46
862.00928,-2661.2
862.4837,-2693.67
862.95813,-2790.77
863.43256,-2520.64
863.90698,-2553.7
864.38141,-2780.55
864.85583,-2823.88
865.3302,-2709.18
865.80463,-2651.33
866.27905,-2774.63
866.75348,-2797.8
867.22791,-2729.35
867.70233,-2794.03
868.17676,-2580.62
868.65118,-2678.93
869.12555,-2808.28
869.59998,-2573.36
870.0744,-2710.22
870.54883,-2598.27
871.02325,-2640.13
871.49768,-2840.9
871.97211,-2751.91
872.44653,-2837.91
872.9209,-2816.13
873.39532,-2704.45
873.86975,-2758.32
874.34418,-2785.96
874.8186,-2762.21
875.29303,-2721.65
875.76746,-2647.85
876.24188,-2744.05
876.71625,-2936.14
877.19067,-2959.59
877.6651,-2822.71
878.13953,-2799.03
878.61395,-2734.42
879.08838,-2715.96
879.56281,-2777.54
880.03723,-2712.8
880.5116,-2713.18
880.98602,-2674.71
881.46045,-2643.75
881.93488,-2774.09
882.4093,-2896.22
882.88373,-2891.85
883.35815,-2552.9
883.83258,-2657.05
884.30695,-2794.81
884.78137,-2866.68
885.2558,-2727.45
885.73022,-2641.2
886.20465,-2664.56
886.67908,-2692.49
887.1535,-2725.22
887.62793,-2817.27
888.10229,-2712.18
888.57672,-2657.29
889.05115,-2736.71
889.52557,-2619.19
890,-2780.52
890.47443,-2835.71
890.94885,-2665
891.42328,-2796.02
891.89764,-2807.55
892.37207,-2691.51
892.8465,-2767.34
893.32092,-2794.96
893.79535,-2711.01
894.26978,-2766.81
894.7442,-2753.78
895.21863,-2781.21
895.69299,-2885.35
896.16742,-2736.59
896.64185,-2783.04
897.11627,-2741.31
897.5907,-2729.81
898.06512,-2772.11
898.53955,-2822.02
899.01398,-2800.1
899.48834,-2728.28
899.96277,-2644.15
900.43719,-2783.56
900.91162,-2818.92
901.38605,-2758.6
901.86047,-2865.02
902.3349,-2898.96
902.80933,-2728.25
903.28369,-2745.05
903.75812,-2707.4
904.23254,-2709.92
904.70697,-2724.76
905.1814,-2860.34
905.65582,-2818.33
906.13025,-2807.57
906.60468,-2679.9
907.07904,-2646.49
907.55347,-2779.3
908.02789,-2772.76
908.50232,-2808.51
908.97675,-2748.68
909.45117,-2724.26
909.9256,-2842.62
910.40002,-2745.75
910.87439,-2661.64
911.34882,-2842.35
911.82324,-2800.95
912.29767,-2705.34
912.77209,-2789.45
913.24652,-2666.54
913.72095,-2588.15
914.19537,-2642.82
914.66974,-2461.79
915.14417,-2465.22
915.61859,-2484.63
916.09302,-2303.07
916.56744,-2540.19
917.04187,-2665.57
917.5163,-2754.35
917.99072,-2777.36
918.46509,-2597.33
918.93951,-2671.43
919.41394,-2872.31
919.88837,-2814.16
920.36279,-2750.39
920.83722,-2816.22
921.31165,-2815.46
921.78607,-2790.54
922.26044,-2722.41
922.73486,-2767.49
923.20929,-2790.74
923.68372,-2725.35
924.15814,-2758.19
924.63257,-2693.39
925.10699,-2696.35
925.58142,-2732.96
926.05579,-2683.95
926.53021,-2738.78
927.00464,-2903.26
927.47906,-2847.36
927.95349,-2747.3
928.42792,-2796.13
928.90234,-2867.12
929.37677,-2942.96
929.85114,-2664.09
930.32556,-2935.96
930.79999,-2876.46
931.27441,-2760.86
931.74884,-2757.52
932.22327,-2751.65
932.69769,-2669.05
933.17212,-2722.93
933.64648,-2850.66
934.12091,-2707.29
934.59534,-2645.2
935.06976,-2828.18
935.54419,-2853.84
936.01862,-2788.4
936.49304,-2699.55
936.96747,-2676.47
937.44183,-2838.42
937.91626,-2820.18
938.39069,-2941.43
938.86511,-2738.71
939.33954,-2765.5
939.81396,-2760.88
940.28839,-2720.15
940.76282,-2709.45
941.23718,-2750.36
941.71161,-2994.21
942.18604,-2812.27
942.66046,-2718.85
943.13489,-2726.37
943.60931,-2616.86
944.08374,-2678.11
944.55817,-2824.17
945.03253,-2749.28
945.50696,-2739.51
945.98138,-2834.68
946.45581,-2830.75
946.93024,-2934.66
947.40466,-2712.51
947.87909,-2712.99
948.35352,-2996.44
948.82788,-2784.93
949.30231,-2782.25
949.77673,-2951.98
950.25116,-2756.2
950.72559,-2896.73
951.20001,-2887.38
951.67444,-2669.19
952.14886,-2739.92
952.62323,-2843.6
953.09766,-2802.99
953.57208,-2718.14
954.04651,-2695.37
954.52094,-2856.03
954.99536,-2869.81
955.46979,-2784.98
955.94421,-2789.61
956.41858,-2761.94
956.89301,-2751.78
957.36743,-2706.86
957.84186,-2793.68
958.31628,-2744.81
958.79071,-2839.59
959.26514,-2885.54
959.73956,-2718.3
960.21393,-2812.09
960.68835,-2942.12
961.16278,-2780.79
961.63721,-2832.18
962.11163,-2907.87
962.58606,-2843.92
963.06049,-2784.31
963.53491,-2799.62
964.00928,-2860.52
964.4837,-2757.98
964.95813,-2925.43
965.43256,-2780.25
965.90698,-2728.32
966.38141,-2782.71
966.85583,-2911.5
967.33026,-2875.45
967.80463,-2655.26
968.27905,-2636.44
968.75348,-2729.17
969.22791,-2794.84
969.70233,-2702.48
970.17676,-2576.46
970.65118,-2794.74
971.12561,-2829.02
971.59998,-2767.27
972.0744,-3032.77
972.54883,-2814.95
973.02325,-2718.01
973.49768,-2829.76
973.97211,-2808.88
974.44653,-2844.9
974.92096,-2836.58
975.39532,-2867.21
975.86975,-3001.86
976.34418,-2757.55
976.8186,-2727.47
977.29303,-2994.42
977.76746,-2814.16
978.24188,-2799.83
978.71631,-2704.8
979.19067,-2676.53
979.6651,-2894.31
980.13953,-2829.04
980.61395,-2824.53
981.08838,-2760.5
981.56281,-2554.79
982.03723,-2744.72
982.51166,-2996.34
982.98602,-2814.41
983.46045,-2620.8
983.93488,-2671.97
984.4093,-2703.83
984.88373,-2645.31
985.35815,-2897.16
985.83258,-2894.34
986.30701,-2877.19
986.78137,-2831.51
987.2558,-2801.27
987.73022,-2933.57
988.20465,-2934.62
988.67908,-2861.02
989.1535,-2756.27
989.62793,-2892.5
990.10229,-2885.12
990.57672,-2598.63
991.05115,-2737.61
991.52557,-2841.74
992,-2875.52
992.47443,-2813.36
992.94885,-2668.91
993.42328,-2780.08
993.89764,-2819.47
994.37207,-2723.43
994.8465,-2891.68
995.32092,-2884.9
995.79535,-2682.83
996.26978,-2711
996.7442,-2936.26
997.21863,-2898.82
997.69299,-2757
998.16742,-3025.31
998.64185,-2987.17
999.11627,-2670.28
999.5907,-2799.88
1000.0651,-2732.54
1000.5396,-2903.37
1001.014,-2956.11
1001.4883,-2761.65
1001.9628,-2745.12
1002.4372,-2855.56
1002.9116,-2910.57
1003.386,-2875.73
1003.8605,-2880.68
1004.3349,-2809.96
1004.8093,-2762.28
1005.2837,-2774.47
1005.7581,-2630.01
1006.2325,-2962.18
1006.707,-3027.4
1007.1814,-2633.11
1007.6558,-2743.3
1008.1302,-3030.2
1008.6047,-2847.12
1009.079,-2808.51
1009.5535,-2941.7
1010.0279,-2760.66
1010.5023,-2691.87
1010.9767,-2758.94
1011.4512,-2705.62
1011.9256,-2751.96
1012.4,-2923.07
1012.8744,-2989.79
1013.3488,-2781.24
1013.8232,-2856.86
1014.2977,-2990.58
1014.7721,-2906.21
1015.2465,-2865.56
1015.7209,-2591.02
1016.1954,-2542.94
1016.6697,-2666.41
1017.1442,-2602.67
1017.6186,-2420.7
1018.093,-2280.59
1018.5674,-2615.01
1019.0419,-2895.69
1019.5163,-2818.28
1019.9907,-2886.89
1020.4651,-2813.8
1020.9395,-2705.91
1021.4139,-3005.92
1021.8884,-2930.02
1022.3628,-2875.96
1022.8372,-2981.4
1023.3116,-2803.42
1023.7861,-2705.25
1024.2605,-2935.9
1024.7349,-2946.1
1025.2094,-2714.6
1025.6837,-2813.77
1026.1581,-2833.05
1026.6326,-2842.24
1027.1069,-2870.74
1027.5814,-2917.8
1028.0558,-2839.7
1028.5303,-2913.85
1029.0046,-2908.84
1029.4791,-2702.02
1029.9535,-2724.82
1030.4279,-2814.39
1030.9023,-2868.32
1031.3767,-2815.84
1031.8512,-2804.37
1032.3256,-2864.47
1032.8,-2809.58
1033.2744,-2874.09
1033.7488,-2852.49
1034.2233,-2961.57
1034.6976,-2791.39
1035.1721,-2818.44
1035.6465,-2778.69
1036.121,-2702.09
1036.5953,-2869.72
1037.0698,-2929.09
1037.5442,-2894.13
1038.0186,-2825.32
1038.493,-2715.32
1038.9674,-2708.33
1039.4419,-2651.97
1039.9163,-2676.01
1040.3907,-2788.11
1040.8651,-2710.33
1041.3395,-2694.29
1041.814,-2767.7
1042.2883,-2616.96
1042.7628,-2736.23
1043.2372,-2700.55
1043.7117,-2705.94
1044.186,-2873.66
1044.6605,-2757.31
1045.1349,-2745.9
1045.6093,-2880.72
1046.0837,-2896.38
1046.5581,-3006.69
1047.0326,-2990.35
1047.507,-2762.97
1047.9814,-2834.19
1048.4558,-2833.26
1048.9302,-2753.51
1049.4047,-2685.3
1049.879,-2873.4
1050.3535,-2895.86
1050.8279,-2738.54
1051.3024,-2821.86
1051.7767,-2915.99
1052.2512,-2886.16
1052.7256,-2898.81
1053.2,-2804.31
1053.6744,-2822.7
1054.1488,-2760.98
1054.6233,-2770.28
1055.0977,-2834.57
1055.5721,-2680.21
1056.0465,-2754.25
1056.5209,-2897.17
1056.9954,-2823.76
1057.4697,-2759.6
1057.9442,-2806.07
1058.4186,-2921.44
1058.8931,-2944.3
1059.3674,-2787.38
1059.8419,-2695.17
1060.3163,-2794.29
1060.7906,-2882.86
1061.2651,-2979.16
1061.7395,-2910.45
1062.214,-2838.17
1062.6884,-2826.15
1063.1628,-2804.01
1063.6372,-2806.51
1064.1116,-2695.37
1064.5861,-2626.8
1065.0604,-2975.18
1065.5349,-2887.25
1066.0093,-2715.03
1066.4838,-2943.89
1066.9581,-2973.66
1067.4326,-2879.61
1067.907,-2737.53
1068.3813,-2653.03
1068.8558,-2884.18
1069.3302,-2970.03
1069.8047,-3000.31
1070.2791,-2763.34
1070.7535,-2671.33
1071.2279,-2798.81
1071.7023,-2692.97
1072.1768,-2713.59
1072.6511,-2859.53
1073.1256,-2855.74
1073.6,-2816.6
1074.0745,-2708.56
1074.5488,-2699.99
1075.0233,-2897.68
1075.4977,-2838.29
1075.972,-2841.52
1076.4465,-2879.5
1076.9209,-2642.93
1077.3954,-2963.41
1077.8698,-2874.11
1078.3442,-2707.28
1078.8186,-2805.47
1079.293,-2720.38
1079.7675,-2990.19
1080.2418,-2986.44
1080.7163,-2851.53
1081.1907,-2896.77
1081.6652,-2735.09
1082.1395,-2745.42
1082.614,-2805.92
1083.0884,-2646.35
1083.5627,-2775.44
1084.0372,-2698.63
1084.5116,-2739
1084.9861,-2816.58
1085.4604,-2902.6
1085.9349,-2884.33
1086.4093,-2720.41
1086.8837,-2676.64
1087.3582,-2769.49
1087.8325,-2829.16
1088.307,-2792.45
1088.7814,-2884.33
1089.2559,-2790.16
1089.7302,-2594.29
1090.2047,-2733.85
1090.6791,-2801.27
1091.1534,-2881.24
1091.6279,-2893.68
1092.1023,-2711.24
1092.5768,-2766.51
1093.0511,-2981.89
1093.5256,-2885.38
1094,-2689.03
1094.4744,-2751.12
1094.9489,-2818.49
1095.4232,-2793.56
1095.8977,-2860
1096.3721,-2816.92
1096.8466,-2690.35
1097.3209,-2803.08
1097.7954,-2725.09
1098.2698,-2857.31
1098.7441,-2855.73
1099.2186,-2766.84
1099.693,-2724.29
1100.1675,-2689.39
1100.6418,-2722.34
1101.1163,-2811.4
1101.5907,-2825.66
1102.0651,-2786.34
1102.5396,-2880.77
1103.0139,-2767.42
1103.4884,-2873.33
1103.9628,-2941.85
1104.4373,-2828.18
1104.9116,-2781.36
1105.3861,-2843.49
1105.8605,-2895.26
1106.3348,-2808.62
1106.8093,-2783.59
1107.2837,-2762.12
1107.7582,-2768.38
1108.2325,-2812.69
1108.707,-2824.83
1109.1814,-2877.88
1109.6558,-2907.13
1110.1302,-2786.11
1110.6046,-2840.05
1111.0791,-2787.15
1111.5535,-2828.64
1112.028,-2823.48
1112.5023,-2784.89
1112.9767,-2820.08
1113.4512,-2913.27
1113.9255,-2916.32
1114.4,-2898.69
1114.8744,-2802.5
1115.3489,-2715.78
1115.8232,-2836.8
1116.2977,-2900.41
1116.7721,-2864.22
1117.2465,-2861.7
1117.7209,-2833.12
1118.1953,-2966.26
1118.6698,-2854.07
1119.1442,-2717.88
1119.6187,-2813.02
1120.093,-2850.53
1120.5674,-2794.41
1121.0419,-2846.63
1121.5162,-2753.6
1121.9907,-2696.78
1122.4651,-2787.32
1122.9396,-2679.13
1123.4139,-2753.36
1123.8884,-2932.89
1124.3628,-2786.23
1124.8372,-2882.05
1125.3116,-2841.09
1125.786,-2831.04
1126.2605,-2870.34
1126.7349,-2760.37
1127.2094,-2767.64
1127.6837,-2945.66
1128.1581,-2892.8
1128.6326,-2742.98
1129.1069,-2859.65
1129.5814,-2854.5
1130.0558,-2829.74
1130.5303,-2796.33
1131.0046,-2780.37
1131.4791,-2826.63
1131.9535,-2827.82
1132.4279,-2769.39
1132.9023,-2627.37
1133.3767,-2768.89
1133.8512,-2759.31
1134.3256,-2666.46
1134.8,-2845.33
1135.2744,-2997.42
1135.7488,-2858.02
1136.2233,-2772.07
1136.6976,-2879.27
1137.1721,-2898.48
1137.6465,-2897.51
1138.121,-2900.79
1138.5953,-3104.33
1139.0698,-2882.49
1139.5442,-2756.03
1140.0186,-2811.04
1140.493,-2798.84
1140.9674,-2781.68
1141.4419,-2879.56
1141.9163,-2881.56
1142.3907,-2700.41
1142.8651,-2639.26
1143.3395,-2825.29
1143.814,-2881.87
1144.2883,-2852.11
1144.7628,-3042.21
1145.2372,-2892.91
1145.7117,-2891.54
1146.186,-2863.55
1146.6605,-2932.55
1147.1349,-2881.64
1147.6093,-2810.31
1148.0837,-2829.95
1148.5581,-2760.88
1149.0326,-2734.33
1149.507,-2771.35
1149.9814,-2893.3
1150.4558,-2922.46
1150.9302,-2932.92
1151.4047,-2799.93
1151.879,-2571.65
1152.3535,-2841.79
1152.8279,-2921.93
1153.3024,-2772.71
1153.7767,-2748.93
1154.2512,-2783.67
1154.7256,-2981.62
1155.2,-2871.5
1155.6744,-2804.89
1156.1488,-2831.05
1156.6233,-2824.69
1157.0977,-2791.41
1157.5721,-2842.9
1158.0465,-2958.33
1158.5209,-2869.92
1158.9954,-2894.52
1159.4697,-2899.03
1159.9442,-2701.07
1160.4186,-2832.46
1160.8931,-2943.79
1161.3674,-2799.95
1161.8419,-2808.81
1162.3163,-2773.33
1162.7906,-2821.37
1163.2651,-3039.35
1163.7395,-2975.27
1164.214,-2670.62
1164.6884,-2756.96
1165.1628,-2899.17
1165.6372,-2788.11
1166.1116,-2730.8
1166.5861,-2775.76
1167.0604,-2851.14
1167.5349,-2781.75
1168.0093,-2763.49
1168.4838,-3073.49
1168.9581,-2859.75
1169.4326,-2655.62
1169.907,-2813.56
1170.3813,-2726.65
1170.8558,-2745.47
1171.3302,-2890.15
1171.8047,-2805.84
1172.2791,-2857.85
1172.7535,-2813.78
1173.2279,-2775.85
1173.7023,-2885.39
1174.1768,-2795.33
1174.6511,-2865.73
1175.1256,-2909.6
1175.6,-2913.19
1176.0745,-2910.15
1176.5488,-2833.49
1177.0233,-2820.69
1177.4977,-2948.8
1177.972,-2816.89
1178.4465,-2805.54
1178.9209,-2814.08
1179.3954,-2771.77
1179.8698,-2964.84
1180.3442,-2965.86
1180.8186,-2932.3
1181.293,-2851.75
1181.7675,-2738.29
1182.2418,-2974.38
1182.7163,-2875.1
1183.1907,-2756.89
1183.6652,-2853.64
1184.1395,-2800.85
1184.614,-2620.1
1185.0884,-2959.79
1185.5627,-2932.92
1186.0372,-2978.65
1186.5116,-2827.41
1186.9861,-2591.1
1187.4604,-2938.89
1187.9349,-2993.68
1188.4093,-2833.19
1188.8837,-2946.62
1189.3582,-2845.23
1189.8325,-2762.95
1190.307,-2867.06
1190.7814,-2815.99
1191.2559,-2738.29
1191.7302,-2707.93
1192.2047,-2777.07
1192.6791,-2692.5
1193.1534,-2952.74
1193.6279,-2882.48
1194.1023,-2661.28
1194.5768,-2806.02
1195.0511,-2864.36
1195.5256,-2874.24
1196,-3025.56
1196.4744,-2935.33
1196.9489,-2789.66
1197.4232,-2878.83
1197.8977,-3023.59
1198.3721,-2834.29
1198.8466,-2648.6
1199.3209,-2726.25
1199.7954,-2795.83
1200.2698,-2901.76
1200.7441,-2697.88
1201.2186,-2721.44
1201.693,-2863.71
1202.1675,-2751.13
1202.6418,-2853.74
1203.1163,-3050.85
1203.5907,-2912.72
1204.0651,-2907.22
1204.5396,-3010.45
1205.0139,-2824.78
1205.4884,-2745.98
1205.9628,-2934.39
1206.4373,-2982.52
1206.9116,-2763.39
1207.3861,-2913.1
1207.8605,-2823.59
1208.3348,-2777.39
1208.8093,-2922.07
1209.2837,-2920.7
1209.7582,-2900.93
1210.2325,-2886.06
1210.707,-2832.5
1211.1814,-2733.31
1211.6558,-3073.62
1212.1302,-2943.77
1212.6046,-2899.09
1213.0791,-2890.08
1213.5535,-2702.54
1214.028,-2899.95
1214.5023,-3041.45
1214.9768,-2813.68
1215.4512,-2812.89
1215.9255,-2991.98
1216.4,-2951.21
1216.8744,-2797.64
1217.3489,-2822.68
1217.8232,-2786.23
1218.2977,-2702.79
1218.7721,-2889.78
1219.2465,-2908.05
1219.7209,-2778.08
1220.1953,-2895.82
1220.6698,-3037.07
1221.1442,-2860.41
1221.6187,-2918.01
1222.093,-3040.49
1222.5675,-2918.79
1223.0419,-3063.28
1223.5162,-2950.46
1223.9907,-2755.86
1224.4651,-2972.66
1224.9396,-2922.96
1225.4139,-2869.65
1225.8884,-2747.75
1226.3628,-2841.4
1226.8372,-2850.1
1227.3116,-2803.18
1227.786,-2976.66
1228.2605,-2883.96
1228.7349,-2853.75
1229.2094,-3071.85
1229.6837,-3009.11
1230.1581,-2909.23
1230.6326,-2938.07
1231.1069,-2873.52
1231.5814,-2849.7
1232.0558,-2908.3
1232.5303,-3024.13
1233.0046,-2884.61
1233.4791,-2833.19
1233.9535,-2899.7
1234.4279,-2807.1
1234.9023,-2824.1
1235.3767,-2957.29
1235.8512,-2857.23
1236.3256,-2834.47
1236.8,-2974.16
1237.2744,-2886.56
1237.7488,-2731.54
1238.2233,-2774.66
1238.6976,-2898.13
1239.1721,-2931.98
1239.6465,-2911.35
1240.121,-2920.72
1240.5953,-2890
1241.0698,-2968.39
1241.5442,-2956.11
1242.0186,-2916.36
1242.493,-2799.71
1242.9674,-2871.29
1243.4419,-2889.74
1243.9163,-2860.69
1244.3907,-2959.66
1244.8651,-2956.66
1245.3395,-2853.35
1245.814,-2795.45
1246.2883,-2960.36
1246.7628,-3053.48
1247.2372,-2706.76
1247.7117,-2649.61
1248.186,-2790.14
1248.6605,-2830.96
1249.1349,-2821.06
1249.6093,-2767.87
1250.0837,-2775.71
1250.5581,-2773.42
1251.0326,-2787.34
1251.507,-2995.29
1251.9814,-3032.29
1252.4558,-2777.78
1252.9302,-2938.88
1253.4047,-2992.18
1253.879,-2767.83
1254.3535,-2956.33
1254.8279,-2984.9
1255.3024,-2737.17
1255.7767,-2944.96
1256.2512,-2825.42
1256.7256,-2721.93
1257.2,-2748.83
1257.6744,-2950.75
1258.1488,-2958.03
1258.6233,-2788.9
1259.0977,-2982.68
1259.5721,-2864.27
1260.0465,-2859.23
1260.5209,-2888.79
1260.9954,-2836.26
1261.4697,-2989.96
1261.9442,-2908.26
1262.4186,-2709.68
1262.8931,-2840.06
1263.3674,-2796
1263.8419,-2752.07
1264.3163,-3068.87
1264.7906,-2918.72
1265.2651,-2689.65
1265.7395,-2953.79
1266.214,-2935.42
1266.6884,-2822.33
1267.1628,-2764.08
1267.6372,-2950.23
1268.1116,-2971.87
1268.5861,-2856.5
1269.0604,-2880.85
1269.5349,-2907.79
1270.0093,-3051.1
1270.4838,-2832.6
1270.9581,-2860.82
1271.4326,-2963.4
1271.907,-2885.56
1272.3813,-2742.26
1272.8558,-2997.53
1273.3302,-2893.14
1273.8047,-2852.45
1274.2791,-3049.76
1274.7535,-2975.38
1275.2279,-2838.13
1275.7023,-2750.95
1276.1768,-2843.52
1276.6511,-2907.56
1277.1256,-2940.84
1277.6,-2924.86
1278.0745,-2752.47
1278.5488,-2790.4
1279.0233,-2931.21
1279.4977,-2764.31
1279.972,-2701.82
1280.4465,-2782.26
1280.9209,-2942.47
1281.3954,-2926.14
1281.8698,-2767.33
1282.3442,-2874.1
1282.8186,-3044.8
1283.293,-2992.57
1283.7675,-2974.53
1284.2418,-2696.61
1284.7163,-2680.73
1285.1907,-2956.01
1285.6652,-2841.17
1286.1395,-2940.29
1286.614,-2727.5
1287.0884,-2650.05
1287.5627,-3107.54
1288.0372,-3088.65
1288.5116,-2969.51
1288.9861,-2983.01
1289.4604,-2814.25
1289.9349,-2746.01
1290.4093,-2860.94
1290.8837,-2795.26
1291.3582,-2800.43
1291.8325,-2838.29
1292.307,-2883.51
1292.7814,-3058.07
1293.2559,-3077.15
1293.7302,-2870.45
1294.2047,-2791.14
1294.6791,-2811.47
1295.1534,-2843.36
1295.6279,-2940.43
1296.1023,-2883.94
1296.5768,-2852.38
1297.0511,-2714.99
1297.5256,-2748.21
1298,-2940.34
1298.4744,-2901.01
1298.9489,-2902.27
1299.4232,-2829.22
1299.8977,-2810.73
1300.3721,-2928.61
1300.8466,-2973.65
1301.3209,-2882
1301.7954,-2829.01
1302.2698,-2855.26
1302.7441,-2795.1
1303.2186,-2844.68
1303.693,-2990.8
1304.1675,-2723.94
1304.6418,-2692.4
1305.1163,-2808.52
1305.5907,-2742.46
1306.0651,-2861.43
1306.5396,-2896.46
1307.0139,-2677.92
1307.4884,-2810.28
1307.9628,-2757.68
1308.4373,-2859.89
1308.9116,-2875.76
1309.3861,-2799.12
1309.8605,-2798.05
1310.3348,-2784.81
1310.8093,-2873.23
1311.2837,-2830.05
1311.7582,-2851.54
1312.2325,-2944.12
1312.707,-2798.18
1313.1814,-2851.09
1313.6558,-2967.32
1314.1302,-2774.52
1314.6046,-2828.35
1315.0791,-2784.58
1315.5535,-2850.21
1316.028,-2856.72
1316.5023,-3011.78
1316.9768,-2945.66
1317.4512,-2836.55
1317.9255,-2916.24
1318.4,-2916.51
1318.8744,-2817.35
1319.3489,-2730.71
1319.8232,-2875.65
1320.2977,-2916.26
1320.7721,-2778.47
1321.2465,-2854.2
1321.7209,-2870.58
1322.1953,-2807.56
1322.6698,-2841.3
1323.1442,-2862.1
1323.6187,-2922.03
1324.093,-2825.37
1324.5675,-2853.34
1325.0419,-2869.93
1325.5162,-2932.33
1325.9907,-2862.72
1326.4651,-2801.52
1326.9396,-2935.92
1327.4139,-2850.96
1327.8884,-2798.4
1328.3628,-2924.58
1328.8372,-2811.43
1329.3116,-2689.47
1329.786,-2820.28
1330.2605,-2814.93
1330.7349,-2778.82
1331.2094,-2823.79
1331.6837,-2761.92
1332.1582,-2813.07
1332.6326,-2834.97
1333.1069,-2896.96
1333.5814,-2853.18
1334.0558,-2825.42
1334.5303,-2762.54
1335.0046,-2874.18
1335.4791,-2913.07
1335.9535,-2776.33
1336.4279,-2888.05
1336.9023,-2867.92
1337.3767,-2847.14
1337.8512,-2828.39
1338.3256,-2873.23
1338.8,-2902.92
1339.2744,-2833.62
1339.7489,-2840.75
1340.2233,-2768.73
1340.6976,-2924.85
1341.1721,-2936.54
1341.6465,-2755.25
1342.121,-2725.38
1342.5953,-2883.16
1343.0698,-2871.98
1343.5442,-2817.35
1344.0186,-2869.03
1344.493,-2773.69
1344.9674,-2734.09
1345.4419,-2833.43
1345.9163,-3034.46
1346.3907,-2792.07
1346.8651,-2875.66
1347.3396,-2697.99
1347.814,-2777.55
1348.2883,-2898.84
1348.7628,-2800.73
1349.2372,-2762.88
1349.7117,-2753.87
1350.186,-2718.14
1350.6605,-2791.11
1351.1349,-2880.09
1351.6093,-2912.36
1352.0837,-2940.65
1352.5581,-2904.34
1353.0326,-2859.31
1353.507,-2875.13
1353.9814,-3008.07
1354.4558,-2913.83
1354.9302,-2835.21
1355.4047,-2715.72
1355.879,-2749
1356.3535,-2762.51
1356.8279,-2909.42
1357.3024,-2976.97
1357.7767,-2824.33
1358.2512,-2766.92
1358.7256,-2767.51
1359.2,-2707.7
1359.6744,-2870.96
1360.1488,-2971.92
1360.6233,-2750.46
1361.0977,-2847.69
1361.5721,-2802.06
1362.0465,-2855.04
1362.5209,-2832.39
1362.9954,-2964.98
1363.4697,-2917.46
1363.9442,-2924.61
1364.4186,-2745.82
1364.8931,-2894.41
1365.3674,-2941.19
1365.8419,-2826.53
1366.3163,-2937.29
1366.7906,-2928.56
1367.2651,-2815.44
1367.7395,-2878.73
1368.214,-2829.92
1368.6884,-2772.36
1369.1628,-2948.95
1369.6372,-2883.3
1370.1116,-2772.74
1370.5861,-2941.1
1371.0604,-2981.72
1371.5349,-2894.21
1372.0093,-2853.94
1372.4838,-2825.87
1372.9581,-2843.37
1373.4326,-2771.52
1373.907,-2711.47
1374.3813,-2844.71
1374.8558,-2879.38
1375.3302,-2823.79
1375.8047,-2954.53
1376.2791,-2834.97
1376.7535,-2606.21
1377.2279,-2881.74
1377.7023,-2734.88
1378.1768,-2876.97
1378.6511,-2860.01
1379.1256,-2909.12
1379.6,-2880.68
1380.0745,-2844.17
1380.5488,-2817.49
1381.0233,-2799.39
1381.4977,-2745.53
1381.972,-2874.91
1382.4465,-2919.48
1382.9209,-2779.96
1383.3954,-2845.12
1383.8698,-2825.54
1384.3442,-2864.06
1384.8186,-2858.84
1385.293,-2815.68
1385.7675,-2762.08
1386.2418,-2667.67
1386.7163,-2819.29
1387.1907,-2863.27
1387.6652,-2960.74
1388.1395,-2904.69
1388.614,-2799.6
1389.0884,-2895.11
1389.5627,-2934.15
1390.0372,-2916.12
1390.5116,-2919.19
1390.9861,-2943.88
1391.4604,-2915.48
1391.9349,-2799.62
1392.4093,-3086.35
1392.8837,-2780.25
1393.3582,-2975.33
1393.8325,-2818.23
1394.307,-2805.62
1394.7814,-2906.99
1395.2559,-2947.61
1395.7302,-2957.92
1396.2047,-2913.61
1396.6791,-2871.77
1397.1534,-2912.06
1397.6279,-2907.59
1398.1023,-2755.93
1398.5768,-2567.63
1399.0511,-2640.21
1399.5256,-2855.46
1400,-2820.51
