Date and Time:                Mon Jan 17 22:56:06.000 2022
Software Version:             4.31.30023.0
Temperature (C):              -50
Model:                        DU420_BVF
Data Type:                    Counts (Bg Corrected)
Acquisition Mode:             Accumulate
Trigger Mode:                 Internal
Exposure Time (secs):         0.09999
Accumulate Cycle Time (secs): 0.09999
Frequency (Hz):               10.001
Number of Accumulations:      1000
Readout Mode:                 Full Vertical Binning
Horizontal binning:           1
Extended Dynamic Range:       off
Horizontally flipped:         false
Vertical Shift Speed (usecs): 8.25
Pixel Readout Time (usecs):   30.303
Serial Number:                22942
Pre-Amplifier Gain:           1.000000
Spurious Noise Filter Mode:   No Filter
Photon counted:               false
Data Averaging Filter Mode:   No Filter
KY328i:
Serial Number:                
Wavelength (nm):              889.526
Grating Groove Density (l/mm):150.012
Grating Blaze:                500nm
Output Flipper Port:          Direct
Filter:                       6-785 LP



380,-2556.12
380.4744,-2498.32
380.94882,-2616.1
381.42325,-2574.64
381.89767,-2732.25
382.37207,-2714.76
382.8465,-2605.5
383.32092,-2650.84
383.79535,-2789
384.26974,-2788.01
384.74417,-2675.86
385.2186,-2786.58
385.69302,-2821.62
386.16742,-2897.91
386.64185,-2890.23
387.11627,-2520.93
387.5907,-2831.87
388.06509,-2808.73
388.53952,-2606.27
389.01395,-2567.12
389.48837,-2638.18
389.96277,-2630.97
390.43719,-2595.74
390.91162,-2669.18
391.38605,-2694.7
391.86044,-2692.36
392.33487,-2699.22
392.8093,-2817.55
393.28372,-2594.18
393.75812,-2658.86
394.23254,-2672.45
394.70697,-2656.84
395.1814,-2613.49
395.65579,-2656
396.13022,-2583.49
396.60464,-2502.95
397.07907,-2673.41
397.55347,-2638.38
398.02789,-2500.31
398.50232,-2612.29
398.97675,-2688.78
399.45114,-2579.41
399.92557,-2719.81
400.39999,-2672.88
400.87442,-2516.41
401.34882,-2577.46
401.82324,-2603.92
402.29767,-2642.04
402.77209,-2642.36
403.24649,-2578.1
403.72092,-2572.71
404.19534,-2635
404.66977,-2683.5
405.14417,-2652.07
405.61859,-2729.68
406.09302,-2694.36
406.56744,-2642.94
407.04184,-2339.78
407.51627,-1106.81
407.99069,850.571
408.46512,2598.09
408.93951,3826.36
409.41394,4295.62
409.88837,3918.95
410.36279,2648.8
410.83719,472.136
411.31161,-1250.55
411.78604,-2101.08
412.26047,-2507.54
412.73486,-2558.09
413.20929,-2434.43
413.68372,-2407.42
414.15814,-2524.13
414.63254,-2529.25
415.10696,-2470.16
415.58139,-2565.77
416.05582,-2480.98
416.53021,-2428.82
417.00464,-2669.73
417.47906,-2728.98
417.95349,-2771.37
418.42789,-2812.88
418.90231,-2572.48
419.37674,-2558.11
419.85117,-2558.03
420.32556,-2669.78
420.79999,-2682.46
421.27441,-2549.57
421.74884,-2680.08
422.22324,-2585.48
422.69766,-2540.08
423.17209,-2793.64
423.64651,-2676.66
424.12091,-2667.61
424.59534,-2643.71
425.06976,-2628.45
425.54419,-2632.82
426.01859,-2550.89
426.49301,-2591.37
426.96744,-2625
427.44186,-2579.1
427.91626,-2667.73
428.39069,-2844.21
428.86511,-2743.22
429.33954,-2589.78
429.81393,-2725.22
430.28836,-2699.67
430.76279,-2675.72
431.23721,-2547.33
431.71161,-2612.43
432.18604,-2737.81
432.66046,-2749.23
433.13489,-2751.38
433.60928,-2583.1
434.08371,-2668.25
434.55814,-2576.1
435.03256,-2633.1
435.50696,-2732.7
435.98138,-2556.74
436.45581,-2607.13
436.93024,-2806.45
437.40463,-2449.47
437.87906,-2532.01
438.35349,-2736.3
438.82791,-2658.34
439.30231,-2564.19
439.77673,-2324.21
440.25116,-2431.69
440.72559,-2552.85
441.19998,-2566.95
441.67441,-2753.08
442.14883,-2695.55
442.62326,-2615.82
443.09766,-2627.23
443.57208,-2558.83
444.04651,-2546.07
444.52094,-2526.31
444.99533,-2672.11
445.46976,-2729.91
445.94418,-2557.09
446.41861,-2616.66
446.89301,-2710.48
447.36743,-2713.56
447.84186,-2784.38
448.31628,-2656.29
448.79068,-2376.18
449.26511,-2667.09
449.73953,-2642.39
450.21396,-2494.12
450.68835,-2693.14
451.16278,-2489.29
451.63721,-2671.44
452.11163,-2745.65
452.58603,-2558.59
453.06046,-2630.28
453.53488,-2731
454.00931,-2615.31
454.4837,-2514.4
454.95813,-2605.69
455.43256,-2578.18
455.90698,-2623.62
456.38138,-2661.74
456.8558,-2535.12
457.33023,-2655.32
457.80466,-2811.24
458.27905,-2511.25
458.75348,-2458.69
459.22791,-2575.55
459.70233,-2565.72
460.17673,-2585.59
460.65115,-2626.49
461.12558,-2585.71
461.60001,-2436.48
462.0744,-2512.12
462.54883,-2551.61
463.02325,-2684.55
463.49768,-2698.75
463.97208,-2360.99
464.4465,-2490.64
464.92093,-2763.74
465.39536,-2667.22
465.86975,-2558.17
466.34418,-2626.62
466.8186,-2624.81
467.29303,-2544.74
467.76743,-2538.13
468.24185,-2553.03
468.71628,-2536.85
469.1907,-2572.95
469.6651,-2500.33
470.13953,-2371.83
470.61395,-2605.08
471.08838,-2829.27
471.56277,-2544.48
472.0372,-2518.7
472.51163,-2572.73
472.98605,-2540.49
473.46045,-2642.48
473.93488,-2554.82
474.4093,-2547.55
474.88373,-2561.77
475.35812,-2524.43
475.83255,-2710.04
476.30698,-2716.26
476.7814,-2568.13
477.2558,-2495.08
477.73022,-2631.64
478.20465,-2674.02
478.67908,-2554.15
479.15347,-2633.31
479.6279,-2666.63
480.10233,-2511.28
480.57675,-2476.77
481.05115,-2561.53
481.52557,-2649.41
482,-2734.63
482.47443,-2572.98
482.94882,-2630.26
483.42325,-2587.73
483.89767,-2458.2
484.3721,-2474.63
484.8465,-2542.78
485.32092,-2548.76
485.79535,-2512.61
486.26978,-2525.65
486.74417,-2517.86
487.2186,-2472.9
487.69302,-2460.71
488.16745,-2466.05
488.64185,-2474.64
489.11627,-2467.25
489.5907,-2596.64
490.06512,-2440.34
490.53952,-2400.98
491.01395,-2533.12
491.48837,-2440.17
491.9628,-2443.07
492.43719,-2479.93
492.91162,-2390.95
493.38605,-2410.76
493.86047,-2466.45
494.33487,-2477.41
494.8093,-2529.69
495.28372,-2376.72
495.75815,-2368.8
496.23254,-2608.94
496.70697,-2562.74
497.1814,-2420.04
497.65582,-2521.84
498.13022,-2534.6
498.60464,-2567.08
499.07907,-2545.51
499.5535,-2527.36
500.02789,-2432.6
500.50232,-2554
500.97675,-2526.8
501.45114,-2526.74
501.92557,-2582.41
502.39999,-2513.9
502.87442,-2567.34
503.34882,-2500.98
503.82324,-2529.33
504.29767,-2581.85
504.77209,-2561.59
505.24649,-2625.65
505.72092,-2439.04
506.19534,-2645.02
506.66977,-2543.53
507.14417,-2467.7
507.61859,-2641.18
508.09302,-2659.54
508.56744,-2618.21
509.04184,-2492.33
509.51627,-2418.26
509.99069,-2550.47
510.46512,-2472.77
510.93951,-2503.02
511.41394,-2704.78
511.88837,-2683.96
512.36279,-2512.58
512.83722,-2368.81
513.31165,-2559.36
513.78601,-2534.52
514.26044,-2520.06
514.73486,-2515.33
515.20929,-2542.16
515.68372,-2509.56
516.15814,-2503.61
516.63257,-2591.99
517.10699,-2517.05
517.58136,-2630.28
518.05579,-2607.33
518.53021,-2416.56
519.00464,-2540.73
519.47906,-2641.72
519.95349,-2513.42
520.42792,-2416.51
520.90234,-2393.43
521.37671,-2428.41
521.85114,-2420.78
522.32556,-2601.96
522.79999,-2722.96
523.27441,-2580.23
523.74884,-2581.32
524.22327,-2469.36
524.69769,-2207.22
525.17206,-2416.88
525.64648,-2663.25
526.12091,-2538.76
526.59534,-2461.06
527.06976,-2478.66
527.54419,-2471.77
528.01862,-2493.83
528.49304,-2389.02
528.96741,-2378.41
529.44183,-2617.01
529.91626,-2540.84
530.39069,-2414.93
530.86511,-2676.51
531.33954,-2485.31
531.81396,-2462.47
532.28839,-2644.66
532.76276,-2353.21
533.23718,-2369.57
533.71161,-2612.45
534.18604,-2599.96
534.66046,-2504.8
535.13489,-2501.38
535.60931,-2455.29
536.08374,-2444.34
536.55811,-2591.63
537.03253,-2454.64
537.50696,-2447.97
537.98138,-2436.73
538.45581,-2532.45
538.93024,-2490.6
539.40466,-2426.16
539.87909,-2419.65
540.35345,-2524.38
540.82788,-2474.46
541.30231,-2423.53
541.77673,-2619.19
542.25116,-2571.36
542.72559,-2401.38
543.20001,-2440.98
543.67444,-2309.09
544.1488,-2332.84
544.62323,-2283.86
545.09766,-2135.94
545.57208,-2184.2
546.04651,-2169.54
546.52094,-2153.98
546.99536,-2255.95
547.46979,-2090.33
547.94415,-2043.91
548.41858,-2283.01
548.89301,-2235.56
549.36743,-2124.22
549.84186,-2338.58
550.31628,-2412.72
550.79071,-2450.85
551.26514,-2280.42
551.7395,-2406.69
552.21393,-2450.59
552.68835,-2203.39
553.16278,-2437.68
553.63721,-2658.56
554.11163,-2522.08
554.58606,-2474.03
555.06049,-2385.95
555.53485,-2470.76
556.00928,-2488.03
556.4837,-2326.8
556.95813,-2541.17
557.43256,-2501.25
557.90698,-2305.63
558.38141,-2455.94
558.85583,-2480.4
559.3302,-2434.34
559.80463,-2402.69
560.27905,-2349.11
560.75348,-2539.79
561.22791,-2495.29
561.70233,-2407.42
562.17676,-2444.33
562.65118,-2312.16
563.12555,-2269.77
563.59998,-2488.2
564.0744,-2350.56
564.54883,-2261.53
565.02325,-2310.75
565.49768,-2246.01
565.97211,-2283.34
566.44653,-2350.58
566.9209,-2377.85
567.39532,-2506.84
567.86975,-2506.69
568.34418,-2399.94
568.8186,-2458.18
569.29303,-2399.6
569.76746,-2406.92
570.24188,-2439.38
570.71625,-2258.59
571.19067,-2434.64
571.6651,-2558.01
572.13953,-2304.84
572.61395,-2326.17
573.08838,-2390.35
573.56281,-2396.51
574.03723,-2419.91
574.5116,-2328.55
574.98602,-2423.42
575.46045,-2406.14
575.93488,-2374.33
576.4093,-2512.21
576.88373,-2411.06
577.35815,-2236.99
577.83258,-2354.18
578.30695,-2441.78
578.78137,-2358.17
579.2558,-2285.96
579.73022,-2416.02
580.20465,-2472.25
580.67908,-2296.52
581.1535,-2256.74
581.62793,-2204.92
582.10229,-2516.72
582.57672,-2362.3
583.05115,-2309.43
583.52557,-2393.12
584,-2268.38
584.47443,-2175.25
584.94885,-2286.98
585.42328,-2467.17
585.89764,-2381.32
586.37207,-2209.28
586.8465,-2263.92
587.32092,-2137.27
587.79535,-2386.9
588.26978,-2355.93
588.7442,-2092.41
589.21863,-2132.06
589.69299,-2360.72
590.16742,-2309.16
590.64185,-2099.61
591.11627,-2160.96
591.5907,-2305.3
592.06512,-2220.39
592.53955,-2171.27
593.01398,-2296.21
593.48834,-2280.98
593.96277,-2330.5
594.43719,-2329.5
594.91162,-2179.36
595.38605,-2191.49
595.86047,-2377.37
596.3349,-2382.28
596.80933,-2394.61
597.28369,-2292.22
597.75812,-2232.69
598.23254,-2231.8
598.70697,-2109.17
599.1814,-2072.04
599.65582,-2087.52
600.13025,-2182.3
600.60468,-2051.06
601.07904,-2120.7
601.55347,-2196.59
602.02789,-2304.14
602.50232,-2238.6
602.97675,-2271.54
603.45117,-2175.49
603.9256,-2064.56
604.40002,-2272.75
604.87439,-2155.95
605.34882,-2115.11
605.82324,-2116.72
606.29767,-2120.37
606.77209,-2174.64
607.24652,-2159.54
607.72095,-2105.31
608.19537,-2106.55
608.66974,-2148.4
609.14417,-2144.8
609.61859,-2137.21
610.09302,-2129.41
610.56744,-2209.44
611.04187,-2155.6
611.5163,-1873.25
611.99072,-1982.33
612.46509,-2038.29
612.93951,-1940.05
613.41394,-1755.84
613.88837,-1903.12
614.36279,-1881.23
614.83722,-2074.42
615.31165,-2010.39
615.78607,-1996.1
616.26044,-2089.99
616.73486,-2170.25
617.20929,-2166.15
617.68372,-2077.66
618.15814,-2278.1
618.63257,-2117.98
619.10699,-2085.63
619.58142,-2041.03
620.05579,-2019.69
620.53021,-2060.34
621.00464,-2058.08
621.47906,-2083.54
621.95349,-2165.02
622.42792,-2069.2
622.90234,-2100.33
623.37671,-2226.57
623.85114,-1989.74
624.32556,-1851.39
624.79999,-2032.24
625.27441,-2040.43
625.74884,-2185.24
626.22327,-2247.99
626.69769,-2183.37
627.17206,-2256.37
627.64648,-2112.45
628.12091,-2084.89
628.59534,-2327.12
629.06976,-2278.58
629.54419,-2243.39
630.01862,-2304.76
630.49304,-2190.37
630.96741,-2106.84
631.44183,-2106.18
631.91626,-2275.78
632.39069,-2274.31
632.86511,-2090.49
633.33954,-2239.32
633.81396,-2129.36
634.28839,-2096.75
634.76276,-2161.2
635.23718,-2225.73
635.71161,-2297.93
636.18604,-2162.88
636.66046,-2115.19
637.13489,-2155.29
637.60931,-2159.03
638.08374,-2255.91
638.55811,-2384.79
639.03253,-2284.53
639.50696,-2235.84
639.98138,-2286.77
640.45581,-2269.57
640.93024,-2288.3
641.40466,-2264.72
641.87909,-2347.4
642.35345,-2371.33
642.82788,-2291.5
643.30231,-2348.17
643.77673,-2270.75
644.25116,-2438.96
644.72559,-2335.66
645.20001,-2281.18
645.67444,-2212.31
646.1488,-2246.7
646.62323,-2290.16
647.09766,-2445.36
647.57208,-2484.54
648.04651,-2342.86
648.52094,-2441.83
648.99536,-2449.49
649.46979,-2368.64
649.94415,-2329.06
650.41858,-2211.77
650.89301,-2234.58
651.36743,-2307.63
651.84186,-2442.44
652.31628,-2313.79
652.79071,-2237.82
653.26514,-2341.35
653.7395,-2398.06
654.21393,-2284.26
654.68835,-2122.83
655.16278,-2382.83
655.63721,-2450.09
656.11163,-2099
656.58606,-2230.06
657.06049,-2392.3
657.53485,-2450.97
658.00928,-2518.72
658.4837,-2449.75
658.95813,-2199.22
659.43256,-2463.47
659.90698,-2455.4
660.38141,-2259.23
660.85583,-2366.59
661.3302,-2215.63
661.80463,-2307.55
662.27905,-2739.69
662.75348,-2493.9
663.22791,-2429.58
663.70233,-2378.99
664.17676,-2245.12
664.65118,-2432.14
665.12555,-2456.37
665.59998,-2364.82
666.0744,-2298.52
666.54883,-2348.16
667.02325,-2349.32
667.49768,-2476.93
667.97211,-2580.21
668.44653,-2253.05
668.9209,-2269.29
669.39532,-2390.22
669.86975,-2307.45
670.34418,-2261.51
670.8186,-2270.32
671.29303,-2320.8
671.76746,-2226.23
672.24188,-2285.64
672.71625,-2469.59
673.19067,-2481.34
673.6651,-2405.43
674.13953,-2367.8
674.61395,-2414.03
675.08838,-2462.45
675.56281,-2528.17
676.03723,-2494.12
676.5116,-2475.42
676.98602,-2416.17
677.46045,-2386.58
677.93488,-2414.09
678.4093,-2538.29
678.88373,-2476.95
679.35815,-2332.35
679.83258,-2360.64
680.30695,-2340.16
680.78137,-2520.88
681.2558,-2519.37
681.73022,-2292.98
682.20465,-2321
682.67908,-2347.57
683.1535,-2462.53
683.62793,-2666.67
684.10229,-2481.24
684.57672,-2410.75
685.05115,-2381.46
685.52557,-2378.86
686,-2490.73
686.47443,-2513.32
686.94885,-2515.64
687.42328,-2500.81
687.89764,-2540.72
688.37207,-2533.4
688.8465,-2529.18
689.32092,-2493.08
689.79535,-2407.02
690.26978,-2343.31
690.7442,-2429.57
691.21863,-2512.49
691.69299,-2528.08
692.16742,-2514.15
692.64185,-2483.45
693.11627,-2535.24
693.5907,-2426.9
694.06512,-2410.56
694.53955,-2339.03
695.01398,-2389.42
695.48834,-2518.89
695.96277,-2572.66
696.43719,-2476.11
696.91162,-2434.97
697.38605,-2450.13
697.86047,-2431.35
698.3349,-2523.09
698.80933,-2486.13
699.28369,-2510.2
699.75812,-2540.18
700.23254,-2509.06
700.70697,-2584.9
701.1814,-2555.95
701.65582,-2464.7
702.13025,-2547.88
702.60468,-2527.06
703.07904,-2452.32
703.55347,-2473.68
704.02789,-2417.01
704.50232,-2434.62
704.97675,-2449.88
705.45117,-2425.19
705.9256,-2446.02
706.40002,-2498.96
706.87439,-2517.3
707.34882,-2557.02
707.82324,-2578.77
708.29767,-2496.42
708.77209,-2500.26
709.24652,-2533.34
709.72095,-2473.22
710.19537,-2560.16
710.66974,-2594.23
711.14417,-2439.61
711.61859,-2597.34
712.09302,-2496.11
712.56744,-2521.55
713.04187,-2415.39
713.5163,-2466.71
713.99072,-2537.4
714.46509,-2488.85
714.93951,-2542.64
715.41394,-2426.73
715.88837,-2395.24
716.36279,-2523.7
716.83722,-2487.98
717.31165,-2458.67
717.78607,-2514.09
718.26044,-2553.01
718.73486,-2530.84
719.20929,-2631.39
719.68372,-2566.36
720.15814,-2511.8
720.63257,-2429.95
721.10699,-2716.77
721.58142,-2752.56
722.05579,-2508.05
722.53021,-2556.03
723.00464,-2522.5
723.47906,-2485.5
723.95349,-2534.98
724.42792,-2586.42
724.90234,-2571.99
725.37677,-2551.79
725.85114,-2625.31
726.32556,-2620.73
726.79999,-2564.68
727.27441,-2661.45
727.74884,-2605.61
728.22327,-2452.42
728.69769,-2459.43
729.17212,-2818.6
729.64648,-2847.75
730.12091,-2502.86
730.59534,-2553.31
731.06976,-2400.13
731.54419,-2546.2
732.01862,-2563.38
732.49304,-2657.01
732.96747,-2720
733.44183,-2598.13
733.91626,-2682.83
734.39069,-2372.42
734.86511,-2385.73
735.33954,-2713.81
735.81396,-2607.45
736.28839,-2514.61
736.76282,-2632.46
737.23718,-2605.71
737.71161,-2649.9
738.18604,-2605.64
738.66046,-2480.7
739.13489,-2547.87
739.60931,-2681.22
740.08374,-2487.96
740.55817,-2568.52
741.03253,-2632.89
741.50696,-2478.58
741.98138,-2657.18
742.45581,-2579.69
742.93024,-2480.83
743.40466,-2505.55
743.87909,-2462.7
744.35345,-2613.46
744.82788,-2597.92
745.30231,-2593.36
745.77673,-2577.04
746.25116,-2586.78
746.72559,-2550.2
747.20001,-2607.97
747.67444,-2511.17
748.1488,-2431.38
748.62323,-2600.3
749.09766,-2602.16
749.57208,-2592.7
750.04651,-2699.71
750.52094,-2648.62
750.99536,-2583.77
751.46979,-2693.36
751.94415,-2657.84
752.41858,-2417.66
752.89301,-2530.29
753.36743,-2512.08
753.84186,-2557.65
754.31628,-2624.14
754.79071,-2468.38
755.26514,-2408.9
755.7395,-2522.76
756.21393,-2584.8
756.68835,-2606.78
757.16278,-2584.95
757.63721,-2641.18
758.11163,-2650.63
758.58606,-2555.99
759.06049,-2524.67
759.53485,-2753.4
760.00928,-2684.67
760.4837,-2576.02
760.95813,-2511.78
761.43256,-2560.8
761.90698,-2659.96
762.38141,-2564.04
762.85583,-2599.28
763.3302,-2726.62
763.80463,-2618.61
764.27905,-2728.6
764.75348,-2636.04
765.22791,-2735.48
765.70233,-2681.48
766.17676,-2536.51
766.65118,-2538.09
767.12555,-2509.57
767.59998,-2413.99
768.0744,-2454.91
768.54883,-2387.42
769.02325,-2538.05
769.49768,-2612.91
769.97211,-2520.96
770.44653,-2705.09
770.9209,-2632.68
771.39532,-2716.59
771.86975,-2536.23
772.34418,-2476.99
772.8186,-2518.08
773.29303,-2683.21
773.76746,-2714.32
774.24188,-2521.83
774.71625,-2441.37
775.19067,-2535.19
775.6651,-2375.94
776.13953,-2516.08
776.61395,-2663.6
777.08838,-2492.78
777.56281,-2650.73
778.03723,-2535.99
778.5116,-2643.01
778.98602,-2745.27
779.46045,-2609.92
779.93488,-2640.81
780.4093,-2606.02
780.88373,-2726.88
781.35815,-2588.63
781.83258,-2359.78
782.30695,-2638.94
782.78137,-2637.65
783.2558,-2656.07
783.73022,-2601.18
784.20465,-2481.92
784.67908,-2615.45
785.1535,-2439.83
785.62793,-2351.23
786.10229,-2547.11
786.57672,-2594.97
787.05115,-2385.65
787.52557,-2600.63
788,-2740.77
788.47443,-2419.73
788.94885,-2521
789.42328,-2854.92
789.89764,-2718.17
790.37207,-2736.92
790.8465,-2642.43
791.32092,-2514.4
791.79535,-2688.94
792.26978,-2736.84
792.7442,-2723.34
793.21863,-2643.34
793.69299,-2509.46
794.16742,-2431.94
794.64185,-2601.76
795.11627,-2748.95
795.5907,-2585.08
796.06512,-2542.65
796.53955,-2602.64
797.01398,-2389.36
797.48834,-2548.27
797.96277,-2617.59
798.43719,-2301.62
798.91162,-2317.85
799.38605,-2554.46
799.86047,-2554.78
800.3349,-2464.08
800.80933,-2533.51
801.28369,-2549.93
801.75812,-2677.85
802.23254,-2722.17
802.70697,-2427.51
803.1814,-2387.07
803.65582,-2724.14
804.13025,-2614.56
804.60468,-2073.04
805.07904,-2281.47
805.55347,-2308.58
806.02789,-2495.93
806.50232,-2565.25
806.97675,-2416.11
807.45117,-2514.37
807.9256,-2717.29
808.40002,-2711.37
808.87439,-2476.78
809.34882,-2437.68
809.82324,-2586.62
810.29767,-2560.54
810.77209,-2568.53
811.24652,-2632.93
811.72095,-2568.2
812.19537,-2426.99
812.66974,-2525.59
813.14417,-2244.67
813.61859,-1757.91
814.09302,-1322.6
814.56744,-674.372
815.04187,-222.167
815.5163,-288.555
815.99072,-582.207
816.46509,-1151.11
816.93951,-1719.15
817.41394,-2230.98
817.88837,-2480.98
818.36279,-2623.37
818.83722,-2703.79
819.31165,-2596.15
819.78607,-2563.84
820.26044,-2717.68
820.73486,-2596.98
821.20929,-2559.91
821.68372,-2623.22
822.15814,-2514.43
822.63257,-2589.18
823.10699,-2633.96
823.58142,-2551.35
824.05579,-2630.64
824.53021,-2559.3
825.00464,-2544.45
825.47906,-2724.93
825.95349,-2497.94
826.42792,-2518.87
826.90234,-2588.77
827.37677,-2583.11
827.85114,-2617.78
828.32556,-2535.03
828.79999,-2438.65
829.27441,-2335.2
829.74884,-2203.14
830.22327,-2160.48
830.69769,-2299.74
831.17212,-2189.05
831.64648,-2180.86
832.12091,-2381.73
832.59534,-2613.63
833.06976,-2652.38
833.54419,-2495.53
834.01862,-2504.88
834.49304,-2461.08
834.96747,-2478.99
835.44183,-2638.98
835.91626,-2547.63
836.39069,-2613.85
836.86511,-2767.05
837.33954,-2609.96
837.81396,-2782.02
838.28839,-2698.29
838.76282,-2485.24
839.23718,-2551.2
839.71161,-2581.53
840.18604,-2660.35
840.66046,-2530.98
841.13489,-2540.7
841.60931,-2778.11
842.08374,-2632.26
842.55817,-2593.28
843.03253,-2411.46
843.50696,-2243.71
843.98138,-1987.92
844.45581,-1739.08
844.93024,-1672.37
845.40466,-1304.25
845.87909,-1319.13
846.35352,-1354.39
846.82788,-1460.49
847.30231,-1678.97
847.77673,-2141.58
848.25116,-2506.69
848.72559,-2416.17
849.20001,-2526.34
849.67444,-2621.52
850.14886,-2710.29
850.62323,-2664.19
851.09766,-2693.24
851.57208,-2751.04
852.04651,-2617.23
852.52094,-2712.35
852.99536,-2742.03
853.46979,-2662.19
853.94421,-2692.84
854.41858,-2530.5
854.89301,-2397.98
855.36743,-2320.37
855.84186,-2183.76
856.31628,-2337.52
856.79071,-2264.75
857.26514,-2336.28
857.73956,-2532.77
858.21393,-2682.36
858.68835,-2713.48
859.16278,-2543.5
859.63721,-2487.26
860.11163,-2568.25
860.58606,-2595.85
861.06049,-2765.3
861.53491,-2683.04
862.00928,-2466.01
862.4837,-2564.48
862.95813,-2577.28
863.43256,-2453.6
863.90698,-2560.74
864.38141,-2552.52
864.85583,-2617.36
865.3302,-2621.48
865.80463,-2562.56
866.27905,-2661.3
866.75348,-2693.12
867.22791,-2638.7
867.70233,-2728.13
868.17676,-2596.43
868.65118,-2603.2
869.12555,-2669.75
869.59998,-2519.88
870.0744,-2594.14
870.54883,-2496.72
871.02325,-2493.55
871.49768,-2746.15
871.97211,-2629.04
872.44653,-2684.29
872.9209,-2671.43
873.39532,-2509.46
873.86975,-2611.98
874.34418,-2747.76
874.8186,-2645.56
875.29303,-2556.66
875.76746,-2620.43
876.24188,-2636.89
876.71625,-2691
877.19067,-2838.63
877.6651,-2581.43
878.13953,-2552.36
878.61395,-2648.69
879.08838,-2589.37
879.56281,-2610.26
880.03723,-2697.84
880.5116,-2775.63
880.98602,-2619.53
881.46045,-2472.07
881.93488,-2654.16
882.4093,-2791.6
882.88373,-2719.66
883.35815,-2584.37
883.83258,-2697.21
884.30695,-2782.36
884.78137,-2729.92
885.2558,-2597.42
885.73022,-2555.38
886.20465,-2578.85
886.67908,-2656.16
887.1535,-2687.74
887.62793,-2797.24
888.10229,-2728.54
888.57672,-2595.97
889.05115,-2645.81
889.52557,-2566.65
890,-2730.53
890.47443,-2717.39
890.94885,-2542.4
891.42328,-2604.77
891.89764,-2722.01
892.37207,-2676.79
892.8465,-2676.39
893.32092,-2654.7
893.79535,-2628.89
894.26978,-2538.59
894.7442,-2550.77
895.21863,-2693.39
895.69299,-2713.12
896.16742,-2697.81
896.64185,-2552.57
897.11627,-2612.52
897.5907,-2796.95
898.06512,-2696.88
898.53955,-2736.56
899.01398,-2666.35
899.48834,-2580.82
899.96277,-2628.43
900.43719,-2680.01
900.91162,-2786.02
901.38605,-2736.26
901.86047,-2648.64
902.3349,-2724.85
902.80933,-2715.24
903.28369,-2675.52
903.75812,-2546.5
904.23254,-2732.9
904.70697,-2715.38
905.1814,-2861.94
905.65582,-2862.57
906.13025,-2733.42
906.60468,-2592.84
907.07904,-2594.58
907.55347,-2708.67
908.02789,-2711.35
908.50232,-2719.92
908.97675,-2724.71
909.45117,-2709.51
909.9256,-2707.53
910.40002,-2626.92
910.87439,-2718.28
911.34882,-2824.49
911.82324,-2719.9
912.29767,-2659.67
912.77209,-2778.97
913.24652,-2606.56
913.72095,-2425.85
914.19537,-2400.14
914.66974,-2223.05
915.14417,-1996.71
915.61859,-1835.69
916.09302,-1874.93
916.56744,-2072.93
917.04187,-2340.94
917.5163,-2428.89
917.99072,-2551.2
918.46509,-2620.07
918.93951,-2649.14
919.41394,-2763.54
919.88837,-2752.59
920.36279,-2780.03
920.83722,-2816.18
921.31165,-2805.97
921.78607,-2770.69
922.26044,-2695.37
922.73486,-2791.99
923.20929,-2766.66
923.68372,-2749.66
924.15814,-2778.78
924.63257,-2571.61
925.10699,-2586.34
925.58142,-2632.95
926.05579,-2470.24
926.53021,-2590.58
927.00464,-2680.29
927.47906,-2650.73
927.95349,-2723.61
928.42792,-2815.77
928.90234,-2853.31
929.37677,-2713.13
929.85114,-2782.14
930.32556,-2904.27
930.79999,-2835.85
931.27441,-2738.1
931.74884,-2797.75
932.22327,-2738.93
932.69769,-2631.07
933.17212,-2748.02
933.64648,-2815.88
934.12091,-2615.98
934.59534,-2632.6
935.06976,-2851.35
935.54419,-2764.39
936.01862,-2740.02
936.49304,-2846.99
936.96747,-2808.62
937.44183,-2812.34
937.91626,-2743
938.39069,-2890.93
938.86511,-2796.96
939.33954,-2694.61
939.81396,-2716.02
940.28839,-2751.54
940.76282,-2747.18
941.23718,-2751.68
941.71161,-2838.63
942.18604,-2700.28
942.66046,-2616.8
943.13489,-2723.88
943.60931,-2469.52
944.08374,-2636.75
944.55817,-2890.59
945.03253,-2717.03
945.50696,-2722.48
945.98138,-2862.46
946.45581,-2813.47
946.93024,-2865.13
947.40466,-2839.91
947.87909,-2787.02
948.35352,-2936.99
948.82788,-2834.65
949.30231,-2594.79
949.77673,-2817.68
950.25116,-2771.5
950.72559,-2753.96
951.20001,-2853.14
951.67444,-2747.89
952.14886,-2719.52
952.62323,-2837.01
953.09766,-2791.47
953.57208,-2875.3
954.04651,-2901.37
954.52094,-2749.31
954.99536,-2727.9
955.46979,-2855.41
955.94421,-2893.44
956.41858,-2727.1
956.89301,-2766.73
957.36743,-3012.06
957.84186,-2801.83
958.31628,-2736.26
958.79071,-2945.07
959.26514,-2923.45
959.73956,-2798.16
960.21393,-2917.09
960.68835,-3019.78
961.16278,-2829.45
961.63721,-2782.36
962.11163,-2810.18
962.58606,-2722.63
963.06049,-2747.65
963.53491,-2729.71
964.00928,-2716.73
964.4837,-2828.49
964.95813,-2848.62
965.43256,-2670.1
965.90698,-2656.07
966.38141,-2772.75
966.85583,-2867.39
967.33026,-2670.27
967.80463,-2464.54
968.27905,-2555.38
968.75348,-2547.49
969.22791,-2512.01
969.70233,-2604.52
970.17676,-2714.19
970.65118,-2704.76
971.12561,-2524.24
971.59998,-2677.52
972.0744,-2967.08
972.54883,-2747.68
973.02325,-2729.81
973.49768,-2701.94
973.97211,-2714.43
974.44653,-2922.6
974.92096,-2737.68
975.39532,-2676.14
975.86975,-2952.4
976.34418,-2693.63
976.8186,-2713.89
977.29303,-2851.84
977.76746,-2810.38
978.24188,-2866.48
978.71631,-2795.9
979.19067,-2783.79
979.6651,-2867.66
980.13953,-2836.8
980.61395,-2810.46
981.08838,-2743.35
981.56281,-2705.54
982.03723,-2870.05
982.51166,-2933.56
982.98602,-2720.57
983.46045,-2628.54
983.93488,-2728.02
984.4093,-2709.94
984.88373,-2741.27
985.35815,-2964.52
985.83258,-2900.02
986.30701,-2826.73
986.78137,-2776.67
987.2558,-2746.21
987.73022,-2807.45
988.20465,-2855.07
988.67908,-2838.88
989.1535,-2752.12
989.62793,-2834.15
990.10229,-2856.32
990.57672,-2675.01
991.05115,-2611.16
991.52557,-2599.71
992,-2878.6
992.47443,-2864.56
992.94885,-2709.38
993.42328,-2758.94
993.89764,-2861.11
994.37207,-2811.62
994.8465,-2828.22
995.32092,-2858.69
995.79535,-2794.13
996.26978,-2780.52
996.7442,-2803.1
997.21863,-2762.56
997.69299,-2731.37
998.16742,-2858.79
998.64185,-2904.31
999.11627,-2745.56
999.5907,-2749.29
1000.0651,-2798.62
1000.5396,-2897.67
1001.014,-2815.61
1001.4883,-2852.75
1001.9628,-2876.41
1002.4372,-2697.21
1002.9116,-2682.03
1003.386,-2907.73
1003.8605,-2986.76
1004.3349,-2761.46
1004.8093,-2772.01
1005.2837,-2860.56
1005.7581,-2750.69
1006.2325,-2849.06
1006.707,-2897.05
1007.1814,-2740.9
1007.6558,-2853.26
1008.1302,-2846.39
1008.6047,-2799.8
1009.079,-2700.13
1009.5535,-2808.65
1010.0279,-2879.78
1010.5023,-2714.57
1010.9767,-2861.96
1011.4512,-2786.73
1011.9256,-2766.75
1012.4,-2936.07
1012.8744,-3034.08
1013.3488,-2818.02
1013.8232,-2738.5
1014.2977,-2857.88
1014.7721,-2872.83
1015.2465,-2814.4
1015.7209,-2388.37
1016.1954,-2064.79
1016.6697,-1966.93
1017.1442,-1845.89
1017.6186,-1858.99
1018.093,-1978.56
1018.5674,-2221.4
1019.0419,-2491.33
1019.5163,-2539.59
1019.9907,-2727.47
1020.4651,-2788.4
1020.9395,-2798.72
1021.4139,-2947.4
1021.8884,-2792.67
1022.3628,-2763.55
1022.8372,-2951.46
1023.3116,-2849.66
1023.7861,-2819.4
1024.2605,-2888.09
1024.7349,-2768.8
1025.2094,-2731.64
1025.6837,-2826.02
1026.1581,-2790.71
1026.6326,-2719.71
1027.1069,-2826.39
1027.5814,-2873.35
1028.0558,-2705.04
1028.5303,-2757.92
1029.0046,-2817.92
1029.4791,-2536.73
1029.9535,-2632.72
1030.4279,-2820.94
1030.9023,-2791.96
1031.3767,-2732.04
1031.8512,-2704.39
1032.3256,-2779.14
1032.8,-2851.55
1033.2744,-2871.04
1033.7488,-2707.97
1034.2233,-2872.32
1034.6976,-2788.35
1035.1721,-2792.47
1035.6465,-2876.9
1036.121,-2811.24
1036.5953,-2819.88
1037.0698,-2871.76
1037.5442,-2858.09
1038.0186,-2808.64
1038.493,-2775.83
1038.9674,-2857.69
1039.4419,-2751.85
1039.9163,-2591.96
1040.3907,-2676.2
1040.8651,-2677.04
1041.3395,-2739.37
1041.814,-2656.98
1042.2883,-2703.6
1042.7628,-2679.7
1043.2372,-2702.98
1043.7117,-2788.44
1044.186,-2796.42
1044.6605,-2788.75
1045.1349,-2926.44
1045.6093,-2912.48
1046.0837,-2717.99
1046.5581,-2879.22
1047.0326,-2883.64
1047.507,-2674.96
1047.9814,-2621.19
1048.4558,-2715.57
1048.9302,-2761.16
1049.4047,-2799.68
1049.879,-2869.95
1050.3535,-2775.19
1050.8279,-2762.23
1051.3024,-2885.01
1051.7767,-2844.51
1052.2512,-2810.52
1052.7256,-2805.16
1053.2,-2767.36
1053.6744,-2981.75
1054.1488,-2870.25
1054.6233,-2806.85
1055.0977,-2868.53
1055.5721,-2751.28
1056.0465,-2694.11
1056.5209,-2903.58
1056.9954,-2945.75
1057.4697,-2885.99
1057.9442,-2917.33
1058.4186,-2799.81
1058.8931,-2767.27
1059.3674,-2835.46
1059.8419,-2761.14
1060.3163,-2786.37
1060.7906,-2831.96
1061.2651,-3071.35
1061.7395,-2952.54
1062.214,-2825.52
1062.6884,-2723.76
1063.1628,-2860.86
1063.6372,-2968
1064.1116,-2715.43
1064.5861,-2612.06
1065.0604,-2976.84
1065.5349,-2905.91
1066.0093,-2812.87
1066.4838,-2977.57
1066.9581,-2983.63
1067.4326,-2887.05
1067.907,-2466.86
1068.3813,-2702.63
1068.8558,-2753.72
1069.3302,-2841.12
1069.8047,-2886.26
1070.2791,-2685.73
1070.7535,-2632.4
1071.2279,-2901.68
1071.7023,-2886.58
1072.1768,-2570.9
1072.6511,-2713.75
1073.1256,-2945.32
1073.6,-2803.16
1074.0745,-2652.75
1074.5488,-2784.06
1075.0233,-2964.81
1075.4977,-2794.2
1075.972,-2788.03
1076.4465,-2834.01
1076.9209,-2741.07
1077.3954,-2943.58
1077.8698,-2916.71
1078.3442,-2715.95
1078.8186,-2778.52
1079.293,-2716.92
1079.7675,-2815.27
1080.2418,-2977.12
1080.7163,-2835.59
1081.1907,-2756.45
1081.6652,-2738.99
1082.1395,-2813.19
1082.614,-2764.76
1083.0884,-2735.33
1083.5627,-2767.13
1084.0372,-2663.83
1084.5116,-2896.61
1084.9861,-2860.17
1085.4604,-2907.2
1085.9349,-2882.65
1086.4093,-2725.27
1086.8837,-2855.81
1087.3582,-2795.48
1087.8325,-2786.39
1088.307,-2799.94
1088.7814,-2720.84
1089.2559,-2633.46
1089.7302,-2661.39
1090.2047,-2831.98
1090.6791,-2880.56
1091.1534,-2853.22
1091.6279,-2738.32
1092.1023,-2722.03
1092.5768,-2862.92
1093.0511,-2905.02
1093.5256,-2764.25
1094,-2770.67
1094.4744,-2821.51
1094.9489,-2730.92
1095.4232,-2732.01
1095.8977,-2812.74
1096.3721,-2920.42
1096.8466,-2849.22
1097.3209,-2810.07
1097.7954,-2742.32
1098.2698,-2796.77
1098.7441,-2926.7
1099.2186,-2851.79
1099.693,-2746.71
1100.1675,-2737.24
1100.6418,-2801.17
1101.1163,-2820.3
1101.5907,-2748.5
1102.0651,-2778.53
1102.5396,-2882.14
1103.0139,-2764.19
1103.4884,-2807.13
1103.9628,-2748.14
1104.4373,-2752.11
1104.9116,-2832.02
1105.3861,-2786.42
1105.8605,-2832.23
1106.3348,-2820.07
1106.8093,-2788.43
1107.2837,-2816.35
1107.7582,-2746.51
1108.2325,-2748.36
1108.707,-2846.2
1109.1814,-2825.41
1109.6558,-2939.84
1110.1302,-2790.78
1110.6046,-2880.16
1111.0791,-2816.44
1111.5535,-2778.41
1112.028,-2778.61
1112.5023,-2836.77
1112.9767,-2838.99
1113.4512,-2842.55
1113.9255,-2876.14
1114.4,-2817.7
1114.8744,-2762.04
1115.3489,-2706.53
1115.8232,-2804.1
1116.2977,-2892.35
1116.7721,-2819.02
1117.2465,-2864.53
1117.7209,-2792.63
1118.1953,-2864.11
1118.6698,-2718.07
1119.1442,-2782.92
1119.6187,-2926.54
1120.093,-2900.01
1120.5674,-2802.78
1121.0419,-2840.04
1121.5162,-2851.71
1121.9907,-2713.79
1122.4651,-2779.85
1122.9396,-2827.58
1123.4139,-2835.27
1123.8884,-2869.51
1124.3628,-2773.64
1124.8372,-2932.72
1125.3116,-2915.48
1125.786,-2888.99
1126.2605,-2874.53
1126.7349,-2777.96
1127.2094,-2786.48
1127.6837,-2820.17
1128.1581,-2753.04
1128.6326,-2735.96
1129.1069,-2869.91
1129.5814,-2890.19
1130.0558,-2755.7
1130.5303,-2754.19
1131.0046,-2839.4
1131.4791,-2904.91
1131.9535,-2874.42
1132.4279,-2893.06
1132.9023,-2834.12
1133.3767,-2946.24
1133.8512,-2871.68
1134.3256,-2704.93
1134.8,-2867.48
1135.2744,-2988.02
1135.7488,-2750.76
1136.2233,-2692.91
1136.6976,-2930.72
1137.1721,-2847.41
1137.6465,-2731.84
1138.121,-2811.84
1138.5953,-2986.02
1139.0698,-2847.56
1139.5442,-2810.92
1140.0186,-2795.16
1140.493,-2782.73
1140.9674,-2797.02
1141.4419,-2725.62
1141.9163,-2768.06
1142.3907,-2715.95
1142.8651,-2830.04
1143.3395,-2972.1
1143.814,-2901.94
1144.2883,-2952.42
1144.7628,-2949.59
1145.2372,-2860.88
1145.7117,-2803.86
1146.186,-2931.07
1146.6605,-3098.7
1147.1349,-2860.09
1147.6093,-2631.44
1148.0837,-2768.26
1148.5581,-2786.77
1149.0326,-2775.47
1149.507,-2973.44
1149.9814,-2933.64
1150.4558,-2744.77
1150.9302,-2846.78
1151.4047,-2779.61
1151.879,-2535.19
1152.3535,-2863.49
1152.8279,-2954.1
1153.3024,-2814.88
1153.7767,-2838.34
1154.2512,-2867.8
1154.7256,-2933.63
1155.2,-2941.7
1155.6744,-2733.13
1156.1488,-2873.84
1156.6233,-3096.27
1157.0977,-2786.74
1157.5721,-2821.32
1158.0465,-3050.06
1158.5209,-2916.44
1158.9954,-2877.36
1159.4697,-2900.78
1159.9442,-2703.27
1160.4186,-2809.67
1160.8931,-2822.87
1161.3674,-2873.1
1161.8419,-2975.59
1162.3163,-2958.74
1162.7906,-2905.07
1163.2651,-2849.14
1163.7395,-2824.19
1164.214,-2768.63
1164.6884,-2771.49
1165.1628,-2874.86
1165.6372,-2806.46
1166.1116,-2734.8
1166.5861,-2863.48
1167.0604,-3027.92
1167.5349,-2949.28
1168.0093,-2801.27
1168.4838,-2938.78
1168.9581,-2936.97
1169.4326,-2678.93
1169.907,-2778.62
1170.3813,-2816.57
1170.8558,-2747.97
1171.3302,-2892.13
1171.8047,-2934.29
1172.2791,-2862.7
1172.7535,-2891.43
1173.2279,-2950.32
1173.7023,-2864.73
1174.1768,-2639.26
1174.6511,-2812.53
1175.1256,-2992.01
1175.6,-2904.06
1176.0745,-2744.7
1176.5488,-2937.77
1177.0233,-2871.45
1177.4977,-3048.14
1177.972,-2977.24
1178.4465,-2788.26
1178.9209,-2813.13
1179.3954,-2777.2
1179.8698,-2857.72
1180.3442,-3050.35
1180.8186,-2889.08
1181.293,-2777.84
1181.7675,-2749.45
1182.2418,-2850.1
1182.7163,-3003.06
1183.1907,-2974.44
1183.6652,-2931.81
1184.1395,-3019.37
1184.614,-2677.54
1185.0884,-2921.03
1185.5627,-2926.84
1186.0372,-2874.83
1186.5116,-2923.14
1186.9861,-2884.32
1187.4604,-3006.04
1187.9349,-2982.6
1188.4093,-2806
1188.8837,-2804.43
1189.3582,-2774.71
1189.8325,-2798.07
1190.307,-2899.43
1190.7814,-2889.4
1191.2559,-2720.8
1191.7302,-2801.37
1192.2047,-2892.86
1192.6791,-2694.32
1193.1534,-2977.16
1193.6279,-2928.94
1194.1023,-2910.31
1194.5768,-2933.81
1195.0511,-2823.35
1195.5256,-3081.36
1196,-2953.51
1196.4744,-2927.63
1196.9489,-2718.7
1197.4232,-2830.56
1197.8977,-2951.7
1198.3721,-2770.1
1198.8466,-2673.94
1199.3209,-2770.32
1199.7954,-2787.68
1200.2698,-2866.97
1200.7441,-2841.71
1201.2186,-2891.07
1201.693,-2927.35
1202.1675,-2835.37
1202.6418,-2859.1
1203.1163,-2964.56
1203.5907,-2913.91
1204.0651,-2747.25
1204.5396,-2933.75
1205.0139,-2921.29
1205.4884,-2677.77
1205.9628,-2938.26
1206.4373,-3118.59
1206.9116,-2949.89
1207.3861,-3013.62
1207.8605,-2776.73
1208.3348,-2802.9
1208.8093,-3059.63
1209.2837,-2978.13
1209.7582,-2838.99
1210.2325,-2714.88
1210.707,-2755.25
1211.1814,-2924.9
1211.6558,-2996.83
1212.1302,-2965.78
1212.6046,-2921.42
1213.0791,-2858.8
1213.5535,-2708.47
1214.028,-2847.94
1214.5023,-2992.61
1214.9768,-2784.79
1215.4512,-2758.91
1215.9255,-2961.1
1216.4,-3003
1216.8744,-2858.47
1217.3489,-2841.63
1217.8232,-2889.22
1218.2977,-2835.49
1218.7721,-2971.65
1219.2465,-2920.33
1219.7209,-2687.19
1220.1953,-2881.61
1220.6698,-3144.47
1221.1442,-2898.09
1221.6187,-2890.98
1222.093,-2985.06
1222.5675,-2990.05
1223.0419,-3043.83
1223.5162,-2854.22
1223.9907,-2813.61
1224.4651,-3031.66
1224.9396,-3015.7
1225.4139,-2887.25
1225.8884,-2776.5
1226.3628,-2754.74
1226.8372,-2795.59
1227.3116,-2770.29
1227.786,-2802.2
1228.2605,-2995.67
1228.7349,-2843.63
1229.2094,-2981.51
1229.6837,-2915.74
1230.1581,-2795.78
1230.6326,-2897.53
1231.1069,-2881.04
1231.5814,-2870.75
1232.0558,-2871.32
1232.5303,-2975.16
1233.0046,-2890.79
1233.4791,-2868.89
1233.9535,-2995.5
1234.4279,-2913.02
1234.9023,-2851.12
1235.3767,-2955.85
1235.8512,-2901.35
1236.3256,-2948.16
1236.8,-2946.91
1237.2744,-2832.78
1237.7488,-2921.01
1238.2233,-2995.42
1238.6976,-2877.12
1239.1721,-2933.52
1239.6465,-2971.29
1240.121,-2804.04
1240.5953,-2855.79
1241.0698,-2914.73
1241.5442,-2821.62
1242.0186,-2871.85
1242.493,-2814.77
1242.9674,-2907.57
1243.4419,-2950.76
1243.9163,-2867.93
1244.3907,-2689.49
1244.8651,-2786.35
1245.3395,-2786.36
1245.814,-2820.62
1246.2883,-2892.39
1246.7628,-2808.97
1247.2372,-2833.93
1247.7117,-2592.87
1248.186,-2871.84
1248.6605,-2742.08
1249.1349,-2779.94
1249.6093,-2844.61
1250.0837,-2841.36
1250.5581,-2830.17
1251.0326,-2729.91
1251.507,-3004.58
1251.9814,-2960.39
1252.4558,-2812.3
1252.9302,-2884.67
1253.4047,-2914.64
1253.879,-2940.78
1254.3535,-3032.37
1254.8279,-2977.57
1255.3024,-2812.04
1255.7767,-2844.39
1256.2512,-2672.92
1256.7256,-2753.88
1257.2,-2743.02
1257.6744,-2856.08
1258.1488,-2824.19
1258.6233,-2824.24
1259.0977,-3133.69
1259.5721,-2982.93
1260.0465,-2830.03
1260.5209,-2795.73
1260.9954,-2888.83
1261.4697,-2931.29
1261.9442,-2808.77
1262.4186,-2901.86
1262.8931,-2804.9
1263.3674,-2698.33
1263.8419,-2860.04
1264.3163,-2926.87
1264.7906,-2857.25
1265.2651,-2877.49
1265.7395,-2931.11
1266.214,-2871.69
1266.6884,-2925.13
1267.1628,-2942.97
1267.6372,-2880.13
1268.1116,-2999.19
1268.5861,-3039.89
1269.0604,-2945.95
1269.5349,-2905.74
1270.0093,-2923.06
1270.4838,-2937.18
1270.9581,-2887.45
1271.4326,-2757.15
1271.907,-2798.87
1272.3813,-2980.74
1272.8558,-3015.82
1273.3302,-2868.51
1273.8047,-2831.87
1274.2791,-2930.06
1274.7535,-3051.37
1275.2279,-2922.59
1275.7023,-2737.67
1276.1768,-2670.87
1276.6511,-2694.68
1277.1256,-3008.92
1277.6,-3104.21
1278.0745,-2811.33
1278.5488,-2779.55
1279.0233,-3005.78
1279.4977,-2699.87
1279.972,-2697.29
1280.4465,-2906.62
1280.9209,-3081.03
1281.3954,-2835.83
1281.8698,-2714.25
1282.3442,-3007.03
1282.8186,-2974.04
1283.293,-2804.53
1283.7675,-2942.92
1284.2418,-2870.59
1284.7163,-2801.62
1285.1907,-2861.51
1285.6652,-2693.53
1286.1395,-2917.71
1286.614,-2759.19
1287.0884,-2777.16
1287.5627,-3030.39
1288.0372,-2952.88
1288.5116,-2949.2
1288.9861,-2918.41
1289.4604,-2772.78
1289.9349,-2845.99
1290.4093,-2969.36
1290.8837,-2877.62
1291.3582,-2889.45
1291.8325,-2915.42
1292.307,-2794.38
1292.7814,-2892.97
1293.2559,-3007.05
1293.7302,-2817.18
1294.2047,-2810.91
1294.6791,-2807.62
1295.1534,-2783.01
1295.6279,-2812.25
1296.1023,-2845.18
1296.5768,-2872.12
1297.0511,-2835.18
1297.5256,-2791.96
1298,-2786.03
1298.4744,-2867.03
1298.9489,-2965.31
1299.4232,-2824.84
1299.8977,-2857.26
1300.3721,-3010.41
1300.8466,-3012.31
1301.3209,-2941.4
1301.7954,-2811.9
1302.2698,-2817.88
1302.7441,-2784.83
1303.2186,-2872.33
1303.693,-2946.3
1304.1675,-2768.59
1304.6418,-2732.38
1305.1163,-2795.85
1305.5907,-2751.6
1306.0651,-2888.83
1306.5396,-2960.63
1307.0139,-2661.75
1307.4884,-2813.08
1307.9628,-2895.64
1308.4373,-2845.54
1308.9116,-2896.36
1309.3861,-2788.7
1309.8605,-2822.04
1310.3348,-2794.71
1310.8093,-2906.29
1311.2837,-2914.24
1311.7582,-2880.6
1312.2325,-2958.16
1312.707,-2957.91
1313.1814,-2928.2
1313.6558,-2854.69
1314.1302,-2862.97
1314.6046,-2848.46
1315.0791,-2774.69
1315.5535,-2800.35
1316.028,-2791.63
1316.5023,-2857.03
1316.9768,-2957.18
1317.4512,-2872.62
1317.9255,-2896.41
1318.4,-2886.06
1318.8744,-2860.77
1319.3489,-2835.03
1319.8232,-2875.31
1320.2977,-2911.39
1320.7721,-2955.21
1321.2465,-2983.78
1321.7209,-2906.65
1322.1953,-2944.17
1322.6698,-2745.29
1323.1442,-2974.7
1323.6187,-2847.97
1324.093,-2894.29
1324.5675,-2966.87
1325.0419,-2813.95
1325.5162,-2873.26
1325.9907,-2872.7
1326.4651,-2768.15
1326.9396,-2913.05
1327.4139,-2884.23
1327.8884,-2808.88
1328.3628,-2947.81
1328.8372,-2839.72
1329.3116,-2720.29
1329.786,-2904.25
1330.2605,-2837.89
1330.7349,-2826.99
1331.2094,-2985.51
1331.6837,-2821.96
1332.1582,-2883.53
1332.6326,-2922.9
1333.1069,-2938.1
1333.5814,-2857.22
1334.0558,-2845.14
1334.5303,-2759.25
1335.0046,-2936.24
1335.4791,-2940.42
1335.9535,-2800.43
1336.4279,-3002.88
1336.9023,-2867.72
1337.3767,-2974.47
1337.8512,-2963.13
1338.3256,-2839.98
1338.8,-2879.35
1339.2744,-2751.43
1339.7489,-2835.47
1340.2233,-2762.47
1340.6976,-2906.66
1341.1721,-2834.84
1341.6465,-2758.87
1342.121,-2802.78
1342.5953,-2866.87
1343.0698,-2871.19
1343.5442,-2815.6
1344.0186,-2806.86
1344.493,-2863.72
1344.9674,-2877.21
1345.4419,-2760.2
1345.9163,-3000.96
1346.3907,-2851.03
1346.8651,-2775.53
1347.3396,-2926.79
1347.814,-2892.22
1348.2883,-2704.33
1348.7628,-2794.75
1349.2372,-3010.98
1349.7117,-3021.89
1350.186,-2851.33
1350.6605,-2813.09
1351.1349,-2868.43
1351.6093,-2900.07
1352.0837,-2952.37
1352.5581,-2942.47
1353.0326,-3002.13
1353.507,-2984.19
1353.9814,-3056.8
1354.4558,-2972.45
1354.9302,-2692.51
1355.4047,-2805.91
1355.879,-2817.96
1356.3535,-2812.13
1356.8279,-2906.82
1357.3024,-2958.55
1357.7767,-2950.41
1358.2512,-2953.14
1358.7256,-2823.14
1359.2,-2745.62
1359.6744,-2836.18
1360.1488,-2787.72
1360.6233,-2774.35
1361.0977,-2790.32
1361.5721,-2901.89
1362.0465,-2977.93
1362.5209,-2922.83
1362.9954,-2995.82
1363.4697,-2974.71
1363.9442,-2948.37
1364.4186,-2721.23
1364.8931,-2815.73
1365.3674,-2920.17
1365.8419,-2969.46
1366.3163,-3077.37
1366.7906,-2886.83
1367.2651,-2759.53
1367.7395,-2918.22
1368.214,-2866.85
1368.6884,-2791.14
1369.1628,-2729.17
1369.6372,-2924.91
1370.1116,-2889.23
1370.5861,-3001.21
1371.0604,-2875.59
1371.5349,-2750.91
1372.0093,-2840.96
1372.4838,-2785.87
1372.9581,-2876.99
1373.4326,-2863.75
1373.907,-2897.69
1374.3813,-3019.92
1374.8558,-2878.85
1375.3302,-2861.35
1375.8047,-3004.49
1376.2791,-2908.65
1376.7535,-2789.34
1377.2279,-2873.98
1377.7023,-2806.03
1378.1768,-2908.22
1378.6511,-2870.85
1379.1256,-2844.91
1379.6,-2808.26
1380.0745,-2957.74
1380.5488,-2887.8
1381.0233,-2896.44
1381.4977,-2994.72
1381.972,-2974.05
1382.4465,-2877.97
1382.9209,-2778.25
1383.3954,-2854.86
1383.8698,-2882.98
1384.3442,-2789.08
1384.8186,-2886.93
1385.293,-2948.99
1385.7675,-3006.95
1386.2418,-2860.11
1386.7163,-2945.73
1387.1907,-3122.66
1387.6652,-2932.57
1388.1395,-2838.09
1388.614,-2844.27
1389.0884,-2832.36
1389.5627,-2992.11
1390.0372,-2998.86
1390.5116,-2877.77
1390.9861,-2903.14
1391.4604,-2759.86
1391.9349,-2812.32
1392.4093,-3050.2
1392.8837,-2840.99
1393.3582,-3036.85
1393.8325,-2747.42
1394.307,-2892.02
1394.7814,-3108.42
1395.2559,-2909.98
1395.7302,-2826.69
1396.2047,-2772.07
1396.6791,-2836.29
1397.1534,-2907.31
1397.6279,-2927.62
1398.1023,-2939.64
1398.5768,-2770.96
1399.0511,-2734.44
1399.5256,-2788.84
1400,-2723.27
