Date and Time:                Fri Dec 3 17:32:45.000 2021
Software Version:             4.31.30023.0
Temperature (C):              -50
Model:                        DU420_BVF
Data Type:                    Counts (Bg Corrected)
Acquisition Mode:             Accumulate
Trigger Mode:                 Internal
Exposure Time (secs):         0.09999
Accumulate Cycle Time (secs): 0.09999
Frequency (Hz):               10.001
Number of Accumulations:      1000
Readout Mode:                 Full Vertical Binning
Horizontal binning:           1
Extended Dynamic Range:       off
Horizontally flipped:         false
Vertical Shift Speed (usecs): 8.25
Pixel Readout Time (usecs):   30.303
Serial Number:                CCD-22942
Pre-Amplifier Gain:           1x
Spurious Noise Filter Mode:   No Filter
Photon counted:               false
Data Averaging Filter Mode:   No Filter
KY328i:
Serial Number:                
Wavelength (nm):              924.465
Grating Groove Density (l/mm):150.012
Grating Blaze:                500nm
Output Flipper Port:          Direct
Filter:                       6-785 LP



350,591.217
350.53488,589.947
351.06976,588.148
351.60464,589.79
352.13953,587.825
352.67441,589.436
353.20929,586.756
353.7442,591.063
354.27908,591.705
354.81396,588.019
355.34885,588.782
355.88373,591.075
356.41861,588.951
356.95349,585.809
357.48837,587.151
358.02325,589.532
358.55814,589.722
359.09302,585.813
359.6279,586.074
360.16278,591.369
360.69766,591.425
361.23257,588.059
361.76746,589.854
362.30234,588.933
362.83722,588.433
363.3721,590.594
363.90698,586.955
364.44186,586.758
364.97675,586.719
365.51163,589.547
366.04651,588.232
366.58139,587.306
367.11627,588.489
367.65115,589.383
368.18604,584.2
368.72095,588.389
369.25583,588.872
369.79071,586.208
370.32559,589.046
370.86047,588.248
371.39536,588.728
371.93024,589.684
372.46512,588.168
373,587.884
373.53488,588.801
374.06976,587.4
374.60464,588.585
375.13953,590.095
375.67441,587.251
376.20932,588.689
376.7442,587.348
377.27908,587.862
377.81396,585.558
378.34885,584.621
378.88373,590.319
379.41861,588.26
379.95349,587.67
380.48837,588.316
381.02325,587.274
381.55814,587.363
382.09302,587.049
382.6279,588.574
383.16278,588.857
383.69766,590.074
384.23257,586.757
384.76746,584.053
385.30234,590.083
385.83722,587.994
386.3721,586.58
386.90698,585.632
387.44186,586.287
387.97675,587.185
388.51163,588.57
389.04651,590.849
389.58139,591.129
390.11627,586.364
390.65115,588.798
391.18604,588.74
391.72095,586.18
392.25583,590.829
392.79071,592.222
393.32559,586.875
393.86047,586.046
394.39536,586.004
394.93024,591.782
395.46512,591.888
396,587.919
396.53488,589.096
397.06976,589.277
397.60464,590.047
398.13953,587.71
398.67441,587.331
399.20932,588.192
399.7442,586.682
400.27908,587.505
400.81396,589.859
401.34885,587.793
401.88373,586.69
402.41861,589.702
402.95349,587.359
403.48837,587.82
404.02325,590.016
404.55814,591.818
405.09302,586.557
405.6279,584.652
406.16278,589.017
406.69769,587.168
407.23257,590.53
407.76746,588.778
408.30234,588.409
408.83722,590.303
409.3721,587.682
409.90698,589.883
410.44186,588.859
410.97675,586.013
411.51163,587.039
412.04651,588.192
412.58139,588.592
413.11627,593.766
413.65115,590.393
414.18607,589.21
414.72095,589.321
415.25583,589.822
415.79071,587.746
416.32559,588.288
416.86047,586.471
417.39536,590.705
417.93024,590.065
418.46512,588.271
419,589.603
419.53488,587.101
420.06976,586.937
420.60464,587.103
421.13953,588.214
421.67441,587.364
422.20932,590.082
422.7442,591.682
423.27908,587.706
423.81396,589.332
424.34885,588.979
424.88373,588.386
425.41861,585.703
425.95349,591.442
426.48837,592.392
427.02325,589.613
427.55814,587.584
428.09302,585.748
428.6279,592.089
429.16278,590.435
429.69769,585.42
430.23257,585.639
430.76746,584.338
431.30234,588.551
431.83722,587.235
432.3721,588.833
432.90698,590.328
433.44186,591.352
433.97675,588.694
434.51163,588.566
435.04651,590.923
435.58139,590.006
436.11627,589.033
436.65115,590.93
437.18607,594.453
437.72095,591.712
438.25583,590.315
438.79071,590.783
439.32559,589.262
439.86047,587.282
440.39536,589.164
440.93024,590.1
441.46512,586.215
442,584.761
442.53488,591.25
443.06976,589.777
443.60464,588.067
444.13953,590.328
444.67444,588.342
445.20932,591.391
445.7442,590.439
446.27908,588.601
446.81396,592.83
447.34885,592.845
447.88373,588.726
448.41861,588.736
448.95349,591.786
449.48837,589.89
450.02325,590.395
450.55814,590.369
451.09302,590.214
451.6279,591.724
452.16278,592.437
452.69769,590.991
453.23257,591.507
453.76746,590.351
454.30234,593.18
454.83722,590.822
455.3721,592.159
455.90698,595.068
456.44186,589.125
456.97675,594.855
457.51163,591.113
458.04651,591.106
458.58139,591.412
459.11627,590.927
459.65115,592.069
460.18607,593.63
460.72095,593.372
461.25583,594.61
461.79071,594.54
462.32559,590.713
462.86047,592.002
463.39536,592.836
463.93024,594.582
464.46512,594.814
465,593.799
465.53488,593.371
466.06976,594.902
466.60464,590.937
467.13953,590.755
467.67444,593.643
468.20932,592.644
468.7442,593.366
469.27908,593.391
469.81396,596.201
470.34885,597.989
470.88373,595.067
471.41861,595.206
471.95349,595.522
472.48837,592.449
473.02325,595.607
473.55814,596.163
474.09302,594.05
474.6279,594.403
475.16281,596.888
475.69769,595.221
476.23257,593.883
476.76746,591.44
477.30234,597.133
477.83722,595.51
478.3721,593.605
478.90698,593.261
479.44186,593.772
479.97675,590.65
480.51163,590.994
481.04651,594.409
481.58139,593.264
482.11627,594.109
482.65118,593.504
483.18607,594.496
483.72095,599.266
484.25583,595.225
484.79071,590.1
485.32559,596.743
485.86047,593.917
486.39536,592.394
486.93024,593.529
487.46512,593.044
488,595.856
488.53488,595.325
489.06976,592.2
489.60464,592.12
490.13953,595.661
490.67444,591.125
491.20932,593.372
491.7442,596.612
492.27908,593.148
492.81396,595.668
493.34885,593.198
493.88373,591.892
494.41861,597.04
494.95349,593.988
495.48837,595.699
496.02325,595.671
496.55814,598.191
497.09302,595.878
497.6279,593.032
498.16281,588.259
498.69769,591.921
499.23257,598.735
499.76746,593.44
500.30234,600.29
500.83722,595.29
501.3721,591.255
501.90698,593.793
502.44186,597.765
502.97675,592.621
503.51163,590.773
504.04651,587.07
504.58139,593.374
505.11627,593.671
505.65118,591.64
506.18607,591.24
506.72095,597.809
507.25583,596.646
507.79071,591.637
508.32559,595.019
508.86047,590.438
509.39536,593.569
509.93024,589.882
510.46512,589.194
511,596.998
511.53488,592.615
512.06976,589.816
512.60468,592.512
513.13953,594.926
513.67444,592.658
514.20929,590.79
514.7442,594.719
515.27905,599.658
515.81396,593.072
516.34882,587.024
516.88373,593.967
517.41864,597.866
517.95349,592.311
518.4884,595.484
519.02325,593.852
519.55817,589.042
520.09302,590.162
520.62793,591.27
521.16278,590.302
521.69769,590.879
522.23254,589.113
522.76746,590.294
523.30231,593.857
523.83722,591.347
524.37207,590.455
524.90698,591.233
525.44189,590.203
525.97675,589.665
526.51166,595.921
527.04651,594.977
527.58142,587.007
528.11627,592.179
528.65118,588.507
529.18604,596.628
529.72095,595.152
530.2558,589.322
530.79071,591.567
531.32556,589.922
531.86047,595.228
532.39539,591.283
532.93024,591.675
533.46515,594.659
534,591.158
534.53491,593.66
535.06976,590.985
535.60468,591.087
536.13953,592.707
536.67444,588.827
537.20929,593.634
537.7442,596.123
538.27905,591.805
538.81396,589.866
539.34882,591.68
539.88373,592.223
540.41864,589.979
540.95349,589.185
541.4884,593.73
542.02325,590.316
542.55817,594.006
543.09302,594.178
543.62793,592.237
544.16278,585.233
544.69769,586.576
545.23254,595.27
545.76746,591.209
546.30231,588.428
546.83722,588.104
547.37213,593.447
547.90698,594.927
548.44189,593.042
548.97675,593.968
549.51166,587.875
550.04651,593.247
550.58142,593.543
551.11627,587.709
551.65118,593.529
552.18604,595.474
552.72095,591.492
553.2558,588.131
553.79071,594.497
554.32556,596.341
554.86047,592.112
555.39539,588.49
555.93024,591.716
556.46515,588.685
557,592.826
557.53491,590.436
558.06976,586.474
558.60468,588.008
559.13953,590.117
559.67444,590.654
560.20929,594.022
560.7442,585.875
561.27905,588.599
561.81396,593.119
562.34882,589.755
562.88373,589.432
563.41864,590.604
563.95349,592.923
564.4884,590.68
565.02325,589.669
565.55817,592.828
566.09302,591.986
566.62793,586.269
567.16278,587.96
567.69769,588.473
568.23254,592.785
568.76746,594.816
569.30231,593.591
569.83722,587.659
570.37213,591.103
570.90698,588.681
571.44189,586.83
571.97675,589.148
572.51166,586.519
573.04651,590.257
573.58142,591.957
574.11627,590.101
574.65118,590.593
575.18604,586.338
575.72095,586.345
576.2558,590.858
576.79071,587.009
577.32556,589.516
577.86047,596.139
578.39539,585.888
578.93024,588.434
579.46515,588.892
580,588.874
580.53491,594.518
581.06976,588.834
581.60468,590.04
582.13953,590.421
582.67444,593.74
583.20929,591.023
583.7442,586.886
584.27905,592.448
584.81396,594.369
585.34888,593.699
585.88373,591.673
586.41864,591.725
586.95349,595.517
587.4884,596.807
588.02325,594.96
588.55817,595.633
589.09302,599.148
589.62793,595.776
590.16278,595.509
590.69769,597.113
591.23254,596.854
591.76746,595.127
592.30231,597.843
592.83722,596.442
593.37213,600.659
593.90698,599.141
594.44189,598.845
594.97675,599.164
595.51166,598.457
596.04651,599.946
596.58142,605.213
597.11627,610.629
597.65118,609.022
598.18604,605.452
598.72095,608.598
599.2558,606.569
599.79071,607.092
600.32556,610.435
600.86047,614.883
601.39539,610.886
601.93024,619.134
602.46515,616.676
603,618.524
603.53491,620.206
604.06976,620.816
604.60468,622.817
605.13953,623.241
605.67444,625.888
606.20929,627.209
606.7442,625.121
607.27905,624.66
607.81396,636.276
608.34888,637.061
608.88373,638.29
609.41864,635.031
609.95349,641.201
610.4884,635.807
611.02325,637.762
611.55817,641.685
612.09302,636.358
612.62793,642.686
613.16278,648.036
613.69769,640.69
614.23254,641.068
614.76746,646.855
615.30231,644.036
615.83722,640.955
616.37213,638.488
616.90698,640.528
617.44189,640.233
617.97675,640.751
618.51166,636.454
619.04651,643.448
619.58142,636.613
620.11627,639.352
620.65118,638.49
621.18604,650.088
621.72095,650.01
622.2558,648.204
622.79071,646.31
623.32556,638.644
623.86047,636.693
624.39539,643.94
624.93024,640.88
625.46515,644.576
626,641.168
626.53491,638.776
627.06976,637.236
627.60468,634.545
628.13953,631.518
628.67444,635.702
629.20929,642.614
629.7442,643.205
630.27905,635.134
630.81396,628.212
631.34888,631.275
631.88373,632.63
632.41864,630.523
632.95349,637.296
633.4884,635.706
634.02325,638.061
634.55817,642.68
635.09302,628.105
635.62793,627.875
636.16278,634.56
636.69769,626.59
637.23254,627.976
637.76746,633.193
638.30231,629.639
638.83722,629.392
639.37213,629.629
639.90698,632.408
640.44189,629.371
640.97675,631.024
641.51166,632.543
642.04651,636.541
642.58142,621.011
643.11627,621.57
643.65118,626.409
644.18604,625.192
644.72095,623.532
645.2558,628.202
645.79071,630.992
646.32562,620.493
646.86047,625.409
647.39539,628.326
647.93024,626.747
648.46515,629.748
649,632.531
649.53491,623.764
650.06976,624.879
650.60468,624.551
651.13953,625.026
651.67444,624.133
652.20929,624.579
652.7442,620.033
653.27905,623.073
653.81396,623.438
654.34888,619.813
654.88373,623.565
655.41864,618.101
655.95349,618.971
656.4884,619.099
657.02325,619.112
657.55817,617.624
658.09302,616.471
658.62793,616.763
659.16278,615.004
659.69769,618.104
660.23254,617.484
660.76746,615.345
661.30231,616.442
661.83722,613.146
662.37213,617.842
662.90698,617.891
663.44189,613.248
663.97675,618.045
664.51166,621.45
665.04651,617.047
665.58142,617.314
666.11627,617.238
666.65118,615.19
667.18604,613.193
667.72095,613.525
668.2558,616.71
668.79071,616.516
669.32562,611.191
669.86047,614.598
670.39539,615.146
670.93024,617.974
671.46515,615.122
672,614.305
672.53491,615.68
673.06976,613.939
673.60468,615.796
674.13953,615.011
674.67444,612.426
675.20929,611.406
675.7442,607.738
676.27905,609.143
676.81396,608.54
677.34888,606.144
677.88373,611.328
678.41864,617.192
678.95349,609.443
679.4884,609.165
680.02325,613.119
680.55817,609.392
681.09302,610.006
681.62793,610.019
682.16278,609.669
682.69769,610.746
683.23254,605.152
683.76746,606.982
684.30237,609.573
684.83722,611.182
685.37213,610.476
685.90698,604.744
686.44189,612.024
686.97675,612.058
687.51166,607.426
688.04651,604.394
688.58142,606.957
689.11627,611.16
689.65118,608.386
690.18604,606.7
690.72095,605.873
691.2558,607.311
691.79071,607.602
692.32562,607.312
692.86047,608.382
693.39539,608.762
693.93024,604.813
694.46515,609.965
695,605.713
695.53491,607.018
696.06976,603.37
696.60468,606.332
697.13953,606.152
697.67444,601.909
698.20929,604.991
698.7442,603.79
699.27905,609.831
699.81396,607.101
700.34888,599.832
700.88373,602.153
701.41864,602.905
701.95349,600.409
702.4884,598.292
703.02325,601.735
703.55817,601.182
704.09302,601.305
704.62793,600.417
705.16278,602.205
705.69769,605.043
706.23254,602.982
706.76746,597.699
707.30237,602.682
707.83722,598.582
708.37213,594.769
708.90698,604.19
709.44189,604.465
709.97675,603.079
710.51166,604.381
711.04651,605.505
711.58142,604.257
712.11627,607.155
712.65118,597.786
713.18604,605.061
713.72095,606.769
714.2558,601.954
714.79071,602.087
715.32562,601.19
715.86047,603.893
716.39539,602.161
716.93024,606.495
717.46515,611.749
718,605.194
718.53491,604.642
719.06976,608.091
719.60468,608.384
720.13953,598.975
720.67444,598.901
721.20929,600.383
721.7442,602.418
722.27911,600.892
722.81396,598.268
723.34888,599.995
723.88373,600.677
724.41864,597.003
724.95349,594.577
725.4884,602.584
726.02325,603.624
726.55817,598.215
727.09302,604.546
727.62793,597.049
728.16278,595.854
728.69769,601.939
729.23254,599.47
729.76746,600.572
730.30237,605.9
730.83722,603.193
731.37213,602.666
731.90698,606.257
732.44189,606.945
732.97675,597.852
733.51166,602.106
734.04651,604.59
734.58142,606.087
735.11627,603.808
735.65118,601.585
736.18604,602.882
736.72095,604.489
737.2558,602.127
737.79071,602.526
738.32562,604.134
738.86047,599.861
739.39539,599.606
739.93024,598.624
740.46515,599.359
741,597.438
741.53491,601.673
742.06976,600.243
742.60468,598.638
743.13953,597.441
743.67444,598.604
744.20929,597.131
744.7442,599.497
745.27911,599.357
745.81396,599.213
746.34888,601.582
746.88373,597.427
747.41864,598.788
747.95349,600.478
748.4884,599.296
749.02325,598.883
749.55817,603.038
750.09302,600.172
750.62793,599.117
751.16278,602.73
751.69769,595.589
752.23254,596.778
752.76746,599.071
753.30237,599.053
753.83722,597.129
754.37213,598.17
754.90698,597.358
755.44189,593.393
755.97675,599.834
756.51166,600.177
757.04651,597.584
757.58142,599.778
758.11627,596.961
758.65118,596.542
759.18604,598.428
759.72095,597.066
760.25586,595.47
760.79071,594.265
761.32562,598.256
761.86047,600.457
762.39539,600.052
762.93024,596.81
763.46515,599.187
764,596.706
764.53491,599.128
765.06976,603.657
765.60468,598.074
766.13953,596.227
766.67444,595.667
767.20929,605.501
767.7442,607.372
768.27911,608.767
768.81396,604.809
769.34888,603.454
769.88373,601.193
770.41864,598.753
770.95349,599.379
771.4884,595.29
772.02325,593.298
772.55817,595.396
773.09302,593.374
773.62793,595.81
774.16278,598.942
774.69769,591.415
775.23254,590.353
775.76746,602.098
776.30237,595.7
776.83722,590.694
777.37213,593.9
777.90698,593.951
778.44189,593.131
778.97675,592.156
779.51166,590.28
780.04651,593.686
780.58142,592.423
781.11627,595.88
781.65118,591.972
782.18604,592.379
782.72095,596.286
783.25586,596.654
783.79071,591.753
784.32562,588.603
784.86047,592.195
785.39539,591.511
785.93024,593.958
786.46515,597.249
787,595.597
787.53491,592.159
788.06976,597.947
788.60468,600.208
789.13953,593.142
789.67444,592.191
790.20929,597.903
790.7442,595.817
791.27911,595.269
791.81396,595.572
792.34888,592.2
792.88373,593.093
793.41864,595.999
793.95349,595.346
794.4884,598.449
795.02325,597.677
795.55817,595.284
796.09302,594.29
796.62793,595.179
797.16278,588.745
797.69769,591.804
798.23254,595.228
798.76746,596.427
799.30237,596.297
799.83722,599.407
800.37213,599.238
800.90698,593.05
801.44189,592.132
801.97675,596.305
802.51166,596.392
803.04651,594.41
803.58142,594.116
804.11627,592.741
804.65118,595.358
805.18604,591.859
805.72095,593.619
806.25586,593.701
806.79071,592.58
807.32562,594.673
807.86047,595.867
808.39539,594.234
808.93024,598.551
809.46515,595.493
810,594.172
810.53491,595.367
811.06976,592.364
811.60468,592.741
812.13953,595.884
812.67444,595.925
813.20929,593.194
813.7442,595.181
814.27911,594.289
814.81396,591.214
815.34888,594.683
815.88373,596.361
816.41864,596.912
816.95349,592.981
817.4884,594.074
818.02325,596.827
818.55817,594.611
819.09302,594.796
819.62793,597.085
820.16278,591.678
820.69769,593.261
821.2326,594.251
821.76746,593.317
822.30237,595.116
822.83722,592.124
823.37213,600.995
823.90698,605.926
824.44189,608.881
824.97675,609.369
825.51166,621.975
826.04651,673.602
826.58142,691.229
827.11627,697.737
827.65118,678.729
828.18604,665.599
828.72095,650.063
829.25586,633.315
829.79071,619.825
830.32562,622.134
830.86047,632.09
831.39539,627.968
831.93024,630.293
832.46515,620.786
833,615.289
833.53491,613.972
834.06976,605.653
834.60468,605.836
835.13953,603.384
835.67444,602.528
836.20929,598.931
836.7442,596.815
837.27911,597.629
837.81396,614.22
838.34888,608.888
838.88373,605.319
839.41864,607.69
839.95349,605.695
840.4884,601.699
841.02325,593.109
841.55817,594.892
842.09302,594.224
842.62793,594.994
843.16278,593.08
843.69769,596.74
844.2326,600.327
844.76746,604.593
845.30237,591.238
845.83722,598.004
846.37213,597.304
846.90698,590.335
847.44189,593.015
847.97675,589.737
848.51166,594.321
849.04651,594.311
849.58142,587.008
850.11627,587.23
850.65118,592.621
851.18604,590.799
851.72095,587.056
852.25586,588.254
852.79071,588.884
853.32562,587.92
853.86047,591.209
854.39539,592.204
854.93024,588.805
855.46515,587.796
856,587.923
856.53491,591.335
857.06976,592.328
857.60468,589.223
858.13953,589.096
858.67444,590.637
859.20935,593.126
859.7442,590.346
860.27911,590.906
860.81396,594.196
861.34888,589.864
861.88373,587.515
862.41864,589.726
862.95349,593.026
863.4884,588.273
864.02325,591.253
864.55817,588.709
865.09302,585.64
865.62793,588.331
866.16278,591.701
866.69769,590.549
867.2326,589
867.76746,589.765
868.30237,590.649
868.83722,592.827
869.37213,590.365
869.90698,587.353
870.44189,590.039
870.97675,593.174
871.51166,590.657
872.04651,592.285
872.58142,589.319
873.11627,589.229
873.65118,590.203
874.18604,587.71
874.72095,594.648
875.25586,593.311
875.79071,591.744
876.32562,591.097
876.86047,590.173
877.39539,590.221
877.93024,590.957
878.46515,591.442
879,593.379
879.53491,591.037
880.06976,590.859
880.60468,590.958
881.13953,590.997
881.67444,593.978
882.20935,592.747
882.7442,592.702
883.27911,593.657
883.81396,595.339
884.34888,603.436
884.88373,616.614
885.41864,632.768
885.95349,637.218
886.4884,632.134
887.02325,619.299
887.55817,618.682
888.09302,609.84
888.62793,604.89
889.16278,598.889
889.69769,599.381
890.2326,594.217
890.76746,592.738
891.30237,592.166
891.83722,591.663
892.37213,590.08
892.90698,594.29
893.44189,592.619
893.97675,594.676
894.51166,589.073
895.04651,592.347
895.58142,593.449
896.11627,591.379
896.65118,592.014
897.18604,590.781
897.72095,596.813
898.25586,600.022
898.79071,599.792
899.32562,602.798
899.86047,599.93
900.39539,597.869
900.93024,597.836
901.46515,592.199
902,597.102
902.53491,596.181
903.06976,591.246
903.60468,593.054
904.13953,591.327
904.67444,592.016
905.20935,589.261
905.7442,589.818
906.27911,591.167
906.81396,592.981
907.34888,592.91
907.88373,597.526
908.41864,602.13
908.95349,594.171
909.4884,597.747
910.02325,594.556
910.55817,590.994
911.09302,591.896
911.62793,587.766
912.16278,587.761
912.69769,590.012
913.2326,587.033
913.76746,593.104
914.30237,591.194
914.83722,588.247
915.37213,591.686
915.90698,589.155
916.44189,592.887
916.97675,588.192
917.51166,586.943
918.04651,589.331
918.58142,593.972
919.11627,598.515
919.65118,600.694
920.1861,601.054
920.72095,597.369
921.25586,594.278
921.79071,594.17
922.32562,595.972
922.86047,590.689
923.39539,590.617
923.93024,595.501
924.46515,590.375
925,588.948
925.53491,586.509
926.06976,590.623
926.60468,589.184
927.13953,590.459
927.67444,589.017
928.20935,592.671
928.7442,588.128
929.27911,584.907
929.81396,585.711
930.34888,590.894
930.88373,586.953
931.41864,585.604
931.95349,585.267
932.4884,589.081
933.02325,588.6
933.55817,590.277
934.09302,590.619
934.62793,589.808
935.16278,590.208
935.69769,593.365
936.2326,591.864
936.76746,589.818
937.30237,591.835
937.83722,591.016
938.37213,589.213
938.90698,592.038
939.44189,591.984
939.97675,591.843
940.51166,589.322
941.04651,590.164
941.58142,594.571
942.11627,589.24
942.65118,590.178
943.1861,597.417
943.72095,593.912
944.25586,591.929
944.79071,593.559
945.32562,591.5
945.86047,591.538
946.39539,593.54
946.93024,591.166
947.46515,592.563
948,593.998
948.53491,591.431
949.06976,590.655
949.60468,590.377
950.13953,594.076
950.67444,592.539
951.20935,589.696
951.7442,590.673
952.27911,593.586
952.81396,593.623
953.34888,590.81
953.88373,590.973
954.41864,593.899
954.95349,589.961
955.4884,591.81
956.02325,590.829
956.55817,588.964
957.09302,591.126
957.62793,589.498
958.16284,587.876
958.69769,590.114
959.2326,587.418
959.76746,589.775
960.30237,587.319
960.83722,593.79
961.37213,591.568
961.90698,587.02
962.44189,588.19
962.97675,591.232
963.51166,586.249
964.04651,590.689
964.58142,586.998
965.11627,587.759
965.65118,593.664
966.1861,590.985
966.72095,589.55
967.25586,589.736
967.79071,592.317
968.32562,589.443
968.86047,590.091
969.39539,590.333
969.93024,590.868
970.46515,592.04
971,591.53
971.53491,587.217
972.06976,590.821
972.60468,593.523
973.13953,588.015
973.67444,589.424
974.20935,590.523
974.7442,589.7
975.27911,588.813
975.81396,586.442
976.34888,590.623
976.88373,591.269
977.41864,589.236
977.95349,587.191
978.4884,591.031
979.02325,587.247
979.55817,588.447
980.09302,587.853
980.62793,594.239
981.16284,587.489
981.69769,587.056
982.2326,591.044
982.76746,595.223
983.30237,598.353
983.83722,596.126
984.37213,600.074
984.90698,598.126
985.44189,593.385
985.97675,594.278
986.51166,595.696
987.04651,589.222
987.58142,584.11
988.11627,589.207
988.65118,593.655
989.1861,591.51
989.72095,587.051
990.25586,589.364
990.79071,590.435
991.32562,588.767
991.86047,585.293
992.39539,590.94
992.93024,591
993.46515,591.077
994,590.634
994.53491,588.841
995.06976,591.044
995.60468,592.824
996.13959,592.911
996.67444,595.125
997.20935,595.839
997.7442,593.958
998.27911,591.114
998.81396,590.506
999.34888,589.405
999.88373,586.827
1000.4186,585.508
1000.9535,590.044
1001.4884,592.319
1002.0233,586.831
1002.5582,587.261
1003.093,586.325
1003.6279,586.936
1004.1628,584.799
1004.6977,587.017
1005.2326,590.837
1005.7675,590.559
1006.3024,586.366
1006.8372,586.701
1007.3721,595.616
1007.907,589.51
1008.4419,584.28
1008.9767,588.328
1009.5117,588.978
1010.0465,587.884
1010.5814,585.916
1011.1163,587.832
1011.6512,588.371
1012.1861,588.641
1012.7209,591.793
1013.2559,590.419
1013.7907,590.395
1014.3256,586.037
1014.8605,587.643
1015.3954,592.186
1015.9302,588.985
1016.4651,587.534
1017,588.583
1017.5349,588.717
1018.0698,589.994
1018.6047,588.191
1019.1396,588.864
1019.6744,590.887
1020.2094,590.121
1020.7442,586.244
1021.2791,584.329
1021.814,588.875
1022.3489,587.977
1022.8837,588.641
1023.4186,588.076
1023.9535,588.801
1024.4884,587.319
1025.0233,589.899
1025.5581,589.966
1026.093,585.99
1026.6279,583.317
1027.1628,587.818
1027.6978,587.451
1028.2325,585.431
1028.7675,585.233
1029.3024,589.616
1029.8373,592.246
1030.3721,589.233
1030.907,586.336
1031.4419,586.859
1031.9768,586.068
1032.5116,587.663
1033.0465,585.7
1033.5814,588.872
1034.1163,589.379
1034.6512,588.966
1035.186,591.204
1035.7209,593.577
1036.2559,588.635
1036.7908,584.074
1037.3256,587.202
1037.8605,594.494
1038.3954,588.898
1038.9303,591.031
1039.4651,593.659
1040,590.422
1040.5349,585.417
1041.0698,588.078
1041.6046,592.086
1042.1395,588.442
1042.6744,585.413
1043.2094,587.621
1043.7443,592.827
1044.2791,588.101
1044.814,586.492
1045.3489,586.323
1045.8838,587.93
1046.4186,585.751
1046.9535,587.03
1047.4884,590.147
1048.0233,587.255
1048.5581,589.443
1049.093,590.046
1049.6279,587.407
1050.1628,588.609
1050.6978,590.447
1051.2325,587.515
1051.7675,588.308
1052.3024,587.257
1052.8373,587.061
1053.3721,585.16
1053.907,591.002
1054.4419,587.766
1054.9768,588.472
1055.5116,588.987
1056.0465,584.59
1056.5814,588.696
1057.1163,590.254
1057.6512,589.417
1058.186,585.213
1058.7209,588.118
1059.2559,589.904
1059.7908,590.292
1060.3256,589.099
1060.8605,590.161
1061.3954,587.176
1061.9303,587.524
1062.4651,589.781
1063,590.162
1063.5349,591.866
1064.0698,588.258
1064.6047,589.478
1065.1395,585.824
1065.6744,586.66
1066.2094,589.843
1066.7443,586.477
1067.2791,584.498
1067.814,588.524
1068.3489,589.421
1068.8838,586.833
1069.4186,588.824
1069.9535,588.666
1070.4884,587.948
1071.0233,586.889
1071.5581,585.88
1072.093,589.353
1072.6279,587.018
1073.1628,588.363
1073.6978,590.377
1074.2325,589.519
1074.7675,587.235
1075.3024,584.605
1075.8373,590.41
1076.3721,588.727
1076.907,588.895
1077.4419,586.602
1077.9768,586.383
1078.5116,588.171
1079.0465,588.388
1079.5814,587.806
1080.1163,586.76
1080.6512,588.086
1081.186,589.309
1081.7209,589.288
1082.2559,590.373
1082.7908,588.362
1083.3256,589.646
1083.8605,588.012
1084.3954,589.962
1084.9303,590.14
1085.4651,589.468
1086,590.233
1086.5349,589.532
1087.0698,588.928
1087.6047,587.771
1088.1395,585.251
1088.6744,589.963
1089.2094,586.897
1089.7443,589.651
1090.2791,588.444
1090.814,591.129
1091.3489,587.704
1091.8838,586.212
1092.4186,589.926
1092.9535,591.432
1093.4884,590.299
1094.0233,587.787
1094.5581,588.958
1095.093,587.451
1095.6279,591.526
1096.1628,589.421
1096.6978,588.074
1097.2325,589.062
1097.7675,587.669
1098.3024,588.11
1098.8373,591.101
1099.3721,587.836
1099.907,590.283
1100.4419,587.479
1100.9768,585.192
1101.5116,590.148
1102.0465,591.568
1102.5814,588.444
1103.1163,587.362
1103.6512,588.906
1104.186,588.164
1104.7209,589.877
1105.2559,588.535
1105.7908,588.629
1106.3256,587.905
1106.8605,585.901
1107.3954,583.688
1107.9303,584.763
1108.4651,585.97
1109,588.621
1109.5349,586.36
1110.0698,588.162
1110.6047,589.993
1111.1395,590.332
1111.6744,591.904
1112.2094,589.125
1112.7443,585.888
1113.2791,587.81
1113.814,587.241
1114.3489,586.026
1114.8838,591.617
1115.4186,590.115
1115.9535,589.358
1116.4884,590.503
1117.0233,586.811
1117.5581,585.711
1118.093,587.756
1118.6279,588.075
1119.1628,589.981
1119.6978,588.869
1120.2325,588.256
1120.7675,588.391
1121.3024,586.032
1121.8373,589.309
1122.3721,592.067
1122.907,588.2
1123.4419,588.989
1123.9768,588.838
1124.5116,588.941
1125.0465,591.179
1125.5814,587.805
1126.1163,586.786
1126.6512,587.064
1127.186,587.444
1127.7209,590.447
1128.2559,583.464
1128.7908,589.334
1129.3256,592.044
1129.8605,588.88
1130.3954,587.947
1130.9303,588.117
1131.4651,587.345
1132,586.931
1132.5349,590.782
1133.0698,590.462
1133.6047,587.731
1134.1395,587.766
1134.6744,589.356
1135.2094,588.428
1135.7443,587.475
1136.2791,590.546
1136.814,589.599
1137.3489,589.559
1137.8838,588.46
1138.4186,588.829
1138.9535,588.015
1139.4884,587.977
1140.0233,586.904
1140.5581,587.286
1141.093,587.72
1141.6279,587.156
1142.1628,588.191
1142.6978,587.808
1143.2325,588.723
1143.7675,587.765
1144.3024,588.292
1144.8373,590.932
1145.3721,586.533
1145.907,586.605
1146.4419,587.4
1146.9768,589.939
1147.5116,591.858
1148.0465,583.613
1148.5814,588.813
1149.1163,587.921
1149.6512,587.332
1150.186,586.606
1150.7209,590.696
1151.2559,588.049
1151.7908,590.264
1152.3256,588.891
1152.8605,586.817
1153.3954,589.857
1153.9303,592.858
1154.4651,585.398
1155,588.553
1155.5349,587.947
1156.0698,587.924
1156.6047,588.136
1157.1395,585.621
1157.6744,587.35
1158.2094,586.269
1158.7443,586.983
1159.2791,587.011
1159.814,588.197
1160.3489,585.863
1160.8838,585.545
1161.4186,589.721
1161.9535,586.678
1162.4884,588.242
1163.0233,585.624
1163.5582,589.456
1164.093,590.407
1164.6279,586.723
1165.1628,587.774
1165.6978,587.722
1166.2325,592.091
1166.7675,589.763
1167.3024,590.478
1167.8373,592.085
1168.3721,588.315
1168.907,587.95
1169.4419,588.972
1169.9768,587.827
1170.5116,586.965
1171.0465,586.892
1171.5814,587.519
1172.1163,587.292
1172.6512,586.111
1173.186,589.933
1173.7209,585.921
1174.2559,584.285
1174.7908,588.986
1175.3256,586.694
1175.8605,588.94
1176.3954,585.866
1176.9303,588.651
1177.4651,592.157
1178,586.335
1178.5349,588.973
1179.0698,587.804
1179.6047,585.088
1180.1395,585.968
1180.6744,587.63
1181.2094,588.862
1181.7443,590.021
1182.2791,588.25
1182.814,586.747
1183.3489,592.484
1183.8838,592.606
1184.4186,588.432
1184.9535,586.362
1185.4884,589.92
1186.0233,588.601
1186.5582,587.043
1187.093,588.44
1187.6279,591.703
1188.1628,587.164
1188.6978,589.86
1189.2325,587.577
1189.7675,588.499
1190.3024,584.493
1190.8373,591.597
1191.3721,591.279
1191.907,589.686
1192.4419,586.08
1192.9768,586.73
1193.5116,589.188
1194.0465,590.195
1194.5814,589.551
1195.1163,587.554
1195.6512,586.763
1196.186,588.492
1196.7209,590.829
1197.2559,587.546
1197.7908,587.69
1198.3256,594.004
1198.8605,586.041
1199.3954,589.196
1199.9303,589.556
1200.4651,588.362
1201,586.674
1201.5349,585.152
1202.0698,588.191
1202.6047,585.47
1203.1395,589.565
1203.6744,588.898
1204.2094,584.858
1204.7443,588.926
1205.2791,588.565
1205.814,590.488
1206.3489,591.488
1206.8838,589.389
1207.4186,585.262
1207.9535,587.052
1208.4884,590.575
1209.0233,585.764
1209.5582,585.42
1210.093,589.572
1210.6279,589.52
1211.1628,587.891
1211.6978,585.871
1212.2325,588.174
1212.7675,587.957
1213.3024,586.732
1213.8373,589.772
1214.3721,586.842
1214.907,587.882
1215.4419,587.73
1215.9768,591.008
1216.5116,592.457
1217.0465,591.888
1217.5814,587.129
1218.1163,595.04
1218.6512,591.637
1219.186,586.712
1219.7209,587.565
1220.2559,590.223
1220.7908,589.638
1221.3256,586.895
1221.8605,587.618
1222.3954,591.559
1222.9303,587.573
1223.4651,586.515
1224,589.795
1224.5349,588.088
1225.0698,587.994
1225.6047,590.079
1226.1395,589.706
1226.6744,592.781
1227.2094,591.273
1227.7443,589.083
1228.2791,587.71
1228.814,586.21
1229.3489,589.462
1229.8838,591.286
1230.4186,591.893
1230.9535,590.57
1231.4884,589.995
1232.0233,589.745
1232.5582,588.267
1233.093,588.908
1233.6279,590.509
1234.1628,592.522
1234.6978,587.384
1235.2325,587.672
1235.7675,590.948
1236.3024,588.647
1236.8373,594.082
1237.3721,589.318
1237.907,590.046
1238.4419,588.902
1238.9768,587.839
1239.5117,588.421
1240.0465,586.786
1240.5814,584.379
1241.1163,589.935
1241.6512,589.234
1242.186,585.5
1242.7209,589.23
1243.2559,588.393
1243.7908,587.026
1244.3256,589.748
1244.8605,587.788
1245.3954,588.629
1245.9303,587.132
1246.4651,588.84
1247,587.147
1247.5349,587.265
1248.0698,590.767
1248.6047,591.355
1249.1395,591.313
1249.6744,587.077
1250.2094,592.318
1250.7443,589.561
1251.2791,584.266
1251.814,588.657
1252.3489,590.674
1252.8838,587.865
1253.4186,589.168
1253.9535,586.089
1254.4884,590.758
1255.0233,590.066
1255.5582,588.624
1256.093,588.259
1256.6279,587.957
1257.1628,588.98
1257.6978,588.034
1258.2325,590.106
1258.7675,591.398
1259.3024,589.821
1259.8373,588.998
1260.3721,588.17
1260.907,584.828
1261.4419,586.582
1261.9768,585.974
1262.5117,586.546
1263.0465,588.609
1263.5814,588.48
1264.1163,587.23
1264.6512,587.483
1265.186,586.92
1265.7209,586.246
1266.2559,585.868
1266.7908,592.418
1267.3256,593.276
1267.8605,592.113
1268.3954,588.997
1268.9303,590.37
1269.4651,588.242
1270,586.88
1270.5349,589.672
1271.0698,587.294
1271.6047,586.738
1272.1395,588.776
1272.6744,589.848
1273.2094,589.404
1273.7443,588.059
1274.2791,587.37
1274.814,591.479
1275.3489,588.455
1275.8838,589.144
1276.4186,587.032
1276.9535,587.655
1277.4884,589.702
1278.0233,588.988
1278.5582,587.107
1279.093,588.131
1279.6279,590.103
1280.1628,588.281
1280.6978,589.239
1281.2325,587.846
1281.7675,587.675
1282.3024,584.74
1282.8373,588.303
1283.3721,588.742
1283.907,587.743
1284.4419,587.458
1284.9768,589.505
1285.5117,588.467
1286.0465,586.761
1286.5814,587.41
1287.1163,587.833
1287.6512,587.84
1288.186,586.252
1288.7209,589.305
1289.2559,590.049
1289.7908,586.572
1290.3256,589.411
1290.8605,590.838
1291.3954,587.876
1291.9303,586.008
1292.4651,587.899
1293,590.617
1293.5349,589.233
1294.0698,588.8
1294.6047,590.656
1295.1395,587.525
1295.6744,585.588
1296.2094,587.046
1296.7443,589.729
1297.2791,590.941
1297.814,590.85
1298.3489,586.973
1298.8838,589.81
1299.4186,587.783
1299.9535,590.422
1300.4884,589.101
1301.0233,590.025
1301.5582,587.717
1302.093,586.493
1302.6279,589.323
1303.1628,587.702
1303.6978,588.748
1304.2325,589.149
1304.7675,588.602
1305.3024,589.69
1305.8373,591.752
1306.3721,587.816
1306.907,589.015
1307.4419,590.957
1307.9768,586.018
1308.5117,586.986
1309.0465,587.99
1309.5814,584.781
1310.1163,587.698
1310.6512,585.407
1311.186,588.747
1311.7209,590.702
1312.2559,587.185
1312.7908,587.944
1313.3256,588.184
1313.8605,589.609
1314.3954,591.877
1314.9303,585.065
1315.4651,589.085
1316,585.767
1316.5349,587.676
1317.0698,590.089
1317.6047,588.474
1318.1395,588.334
1318.6744,588.894
1319.2094,590.129
1319.7443,590.064
1320.2791,588.947
1320.814,588.152
1321.3489,589.795
1321.8838,593.329
1322.4186,587.866
1322.9535,586.83
1323.4884,587.928
1324.0233,588.994
1324.5582,587.017
1325.093,589.1
1325.6279,589.302
1326.1628,590.85
1326.6978,590.616
1327.2325,590.974
1327.7675,587.28
1328.3024,586.195
1328.8373,587.798
1329.3721,587.738
1329.907,588.598
1330.4419,586.767
1330.9768,593.626
1331.5117,591.337
1332.0465,586.271
1332.5814,585.799
1333.1163,590.989
1333.6512,589.817
1334.186,588.209
1334.7209,589.452
1335.2559,586.582
1335.7908,591.402
1336.3256,587.254
1336.8605,587.79
1337.3954,591.302
1337.9303,592.099
1338.4652,588.162
1339,587.769
1339.5349,587.957
1340.0698,592.188
1340.6047,589.911
1341.1395,587.944
1341.6744,588.035
1342.2094,587.013
1342.7443,588.269
1343.2791,593.953
1343.814,588.307
1344.3489,588.427
1344.8838,590.262
1345.4186,589.552
1345.9535,589.332
1346.4884,589.843
1347.0233,588.082
1347.5582,589.368
1348.093,588.965
1348.6279,592.218
1349.1628,590.015
1349.6978,589.619
1350.2325,589.456
1350.7675,586.722
1351.3024,593.979
1351.8373,587.805
1352.3721,588.149
1352.907,587.724
1353.4419,587.521
1353.9768,588.023
1354.5117,588.006
1355.0465,589.932
1355.5814,585.224
1356.1163,589.334
1356.6512,587.281
1357.186,585.793
1357.7209,590.988
1358.2559,589.561
1358.7908,584.878
1359.3256,589.302
1359.8605,591.122
1360.3954,589.022
1360.9303,588.968
1361.4652,588.155
1362,591.197
1362.5349,589.393
1363.0698,586.304
1363.6047,587.031
1364.1395,588.495
1364.6744,587.228
1365.2094,587.677
1365.7443,586.846
1366.2791,587.102
1366.814,586.737
1367.3489,589.102
1367.8838,591.843
1368.4186,590.632
1368.9535,586.752
1369.4884,593.951
1370.0233,587.812
1370.5582,585.993
1371.093,586.098
1371.6279,588.903
1372.1628,590.115
1372.6978,585.339
1373.2325,591.678
1373.7675,594.621
1374.3024,590.081
1374.8373,588.658
1375.3721,589.597
1375.907,591.734
1376.4419,587.67
1376.9768,588.507
1377.5117,588.429
1378.0465,585.897
1378.5814,589.012
1379.1163,584.947
1379.6512,587.25
1380.186,589.286
1380.7209,589.526
1381.2559,588.829
1381.7908,591.783
1382.3256,587.665
1382.8605,587.838
1383.3954,592.004
1383.9303,588.376
1384.4652,587.206
1385,585.666
1385.5349,588.064
1386.0698,587.962
1386.6047,591.701
1387.1395,589.214
1387.6744,589.982
1388.2094,589.005
1388.7443,591.181
1389.2791,590.486
1389.814,586.802
1390.3489,588.393
1390.8838,591.459
1391.4186,591.071
1391.9535,586.638
1392.4884,588.725
1393.0233,589.233
1393.5582,588.196
1394.093,593.156
1394.6279,584.168
1395.1628,587.071
1395.6978,590.464
1396.2325,587.036
1396.7675,588.994
1397.3024,587.001
1397.8373,589.004
1398.3721,586.802
1398.907,587.104
1399.4419,586.782
1399.9768,588.05
1400.5117,592.082
1401.0465,593.461
1401.5814,594.341
1402.1163,592.42
1402.6512,589.533
1403.186,583.81
1403.7209,586.557
1404.2559,588.342
1404.7908,588.353
1405.3256,594.008
1405.8605,588.123
1406.3954,589.018
1406.9303,586.796
1407.4652,587.547
1408,591.111
1408.5349,590.079
1409.0698,590.869
1409.6047,587.281
1410.1395,587.751
1410.6744,592.175
1411.2094,587.769
1411.7443,591.214
1412.2791,588.828
1412.814,584.127
1413.3489,590.052
1413.8838,590.51
1414.4186,587.861
1414.9535,591.965
1415.4884,588.898
1416.0233,589.337
1416.5582,591.621
1417.093,588.174
1417.6279,591.032
1418.1628,588.293
1418.6978,588.31
1419.2325,586.367
1419.7675,586.557
1420.3024,590.255
1420.8373,588.344
1421.3721,585.393
1421.907,591.258
1422.4419,593.282
1422.9768,584.414
1423.5117,588.673
1424.0465,588.003
1424.5814,589.981
1425.1163,586.861
1425.6512,588.268
1426.186,589.053
1426.7209,588.914
1427.2559,587.097
1427.7908,589.428
1428.3256,592.253
1428.8605,589.829
1429.3954,588.418
1429.9303,586.786
1430.4652,591.61
1431,587.983
1431.5349,588.777
1432.0698,586.825
1432.6047,592.032
1433.1395,585.998
1433.6744,593.097
1434.2094,588.802
1434.7443,589.737
1435.2791,587.125
1435.814,590.881
1436.3489,589.816
1436.8838,586.22
1437.4187,588.865
1437.9535,588.111
1438.4884,586.028
1439.0233,587.715
1439.5582,584.001
1440.093,589.549
1440.6279,589.696
1441.1628,587.275
1441.6978,585.764
1442.2325,591.995
1442.7675,587.963
1443.3024,592.413
1443.8373,592.912
1444.3721,589.593
1444.907,586.81
1445.4419,589.377
1445.9768,587.541
1446.5117,588.197
1447.0465,587.979
1447.5814,591.884
1448.1163,585.27
1448.6512,585.145
1449.186,589.259
1449.7209,586.215
1450.2559,589.309
1450.7908,593.148
1451.3256,586.989
1451.8605,590.155
1452.3954,590.069
1452.9303,592.433
1453.4652,592.549
1454,591.126
1454.5349,591.706
1455.0698,585.952
1455.6047,590.104
1456.1395,592.435
1456.6744,585.738
1457.2094,587.009
1457.7443,584.956
1458.2791,583.287
1458.814,588.73
1459.3489,585.303
1459.8838,587.755
1460.4187,591.968
1460.9535,588.02
1461.4884,592.363
1462.0233,591.852
1462.5582,590.202
1463.093,588.054
1463.6279,591.456
1464.1628,592.791
1464.6978,591.928
1465.2325,591.339
1465.7675,587.465
1466.3024,590.027
1466.8373,594.275
1467.3721,590.637
1467.907,590.049
1468.4419,588.066
1468.9768,589.005
1469.5117,586.96
1470.0465,588.217
1470.5814,588.636
1471.1163,587.712
1471.6512,592.529
1472.186,589.671
1472.7209,588.528
1473.2559,593.135
1473.7908,591.851
1474.3256,587.178
1474.8605,588.028
1475.3954,590.037
1475.9303,583.305
1476.4652,590.621
1477,590.367
1477.5349,590.127
1478.0698,586.001
1478.6047,590.173
1479.1395,589.848
1479.6744,587.243
1480.2094,585.89
1480.7443,592.052
1481.2791,591.393
1481.814,589.138
1482.3489,590.277
1482.8838,589.042
1483.4187,586.797
1483.9535,590.583
1484.4884,589.088
1485.0233,593.107
1485.5582,591.893
1486.093,587.199
1486.6279,587.881
1487.1628,591.04
1487.6978,591.959
1488.2325,589.462
1488.7675,587.265
1489.3024,590.435
1489.8373,591.719
1490.3721,589.901
1490.907,585.777
1491.4419,590.547
1491.9768,591.204
1492.5117,589.288
1493.0465,588.095
1493.5814,589.385
1494.1163,590.454
1494.6512,587.015
1495.186,590.773
1495.7209,590.028
1496.2559,588.878
1496.7908,586.131
1497.3256,590.442
1497.8605,587.63
1498.3954,584.777
1498.9303,592.144
1499.4652,590.947
1500,588.634
