Date and Time:                Fri Dec 3 18:34:04.000 2021
Software Version:             4.31.30023.0
Temperature (C):              -50
Model:                        DU420_BVF
Data Type:                    Counts (Bg Corrected)
Acquisition Mode:             Accumulate
Trigger Mode:                 Internal
Exposure Time (secs):         0.09999
Accumulate Cycle Time (secs): 0.09999
Frequency (Hz):               10.001
Number of Accumulations:      1000
Readout Mode:                 Full Vertical Binning
Horizontal binning:           1
Extended Dynamic Range:       off
Horizontally flipped:         false
Vertical Shift Speed (usecs): 8.25
Pixel Readout Time (usecs):   30.303
Serial Number:                CCD-22942
Pre-Amplifier Gain:           1x
Spurious Noise Filter Mode:   No Filter
Photon counted:               false
Data Averaging Filter Mode:   No Filter
KY328i:
Serial Number:                
Wavelength (nm):              924.465
Grating Groove Density (l/mm):150.012
Grating Blaze:                500nm
Output Flipper Port:          Direct
Filter:                       6-785 LP



350,594.327
350.53488,595.946
351.06976,590.889
351.60464,592.83
352.13953,596.562
352.67441,596.794
353.20929,593.585
353.7442,593.192
354.27908,592.81
354.81396,591.224
355.34885,598.31
355.88373,595.75
356.41861,590.331
356.95349,592.95
357.48837,594.11
358.02325,594.677
358.55814,595.105
359.09302,594.914
359.6279,595.769
360.16278,596.128
360.69766,595.278
361.23257,590.25
361.76746,592.748
362.30234,596.69
362.83722,593.112
363.3721,593.298
363.90698,597.072
364.44186,594.288
364.97675,589.444
365.51163,587.636
366.04651,590.639
366.58139,592.007
367.11627,586.967
367.65115,589.884
368.18604,596.641
368.72095,595.907
369.25583,592.607
369.79071,593.337
370.32559,595.832
370.86047,595.861
371.39536,591.423
371.93024,592.546
372.46512,591.398
373,592.429
373.53488,592.399
374.06976,594.303
374.60464,595.396
375.13953,590.235
375.67441,594.538
376.20932,594.985
376.7442,592.491
377.27908,594.493
377.81396,594.4
378.34885,598.225
378.88373,596.691
379.41861,596.076
379.95349,595.568
380.48837,591.595
381.02325,590.756
381.55814,595.688
382.09302,596.486
382.6279,597.264
383.16278,596.476
383.69766,595.401
384.23257,595.368
384.76746,596.585
385.30234,597.491
385.83722,598.728
386.3721,596.583
386.90698,597.383
387.44186,596.575
387.97675,598.836
388.51163,601.338
389.04651,601.537
389.58139,590.163
390.11627,606.166
390.65115,602.784
391.18604,604.315
391.72095,606.703
392.25583,608.663
392.79071,607.689
393.32559,609.344
393.86047,607.227
394.39536,611.201
394.93024,611.68
395.46512,618.104
396,618.802
396.53488,622.112
397.06976,623.491
397.60464,618.867
398.13953,624.788
398.67441,630.589
399.20932,630.919
399.7442,639.335
400.27908,628.901
400.81396,634.409
401.34885,629.542
401.88373,635.24
402.41861,637.565
402.95349,633.858
403.48837,634.908
404.02325,637.927
404.55814,634.795
405.09302,632.585
405.6279,635.708
406.16278,636.5
406.69769,639.723
407.23257,635.501
407.76746,636.82
408.30234,639.048
408.83722,635.427
409.3721,637.839
409.90698,653.151
410.44186,645.852
410.97675,639.297
411.51163,647.074
412.04651,650.382
412.58139,656.136
413.11627,655.619
413.65115,658.821
414.18607,659.122
414.72095,657.38
415.25583,667.401
415.79071,653.822
416.32559,654.216
416.86047,674.478
417.39536,675.215
417.93024,673.779
418.46512,669.992
419,680.783
419.53488,685.516
420.06976,681.745
420.60464,686.208
421.13953,701.006
421.67441,687.442
422.20932,685.338
422.7442,694.115
423.27908,711.148
423.81396,700.542
424.34885,696.984
424.88373,701.142
425.41861,716.319
425.95349,716.079
426.48837,710.74
427.02325,707.436
427.55814,711.103
428.09302,715.159
428.6279,718.011
429.16278,731.056
429.69769,719.65
430.23257,720.388
430.76746,718.369
431.30234,722.943
431.83722,715.787
432.3721,725.615
432.90698,719.847
433.44186,727.269
433.97675,728.399
434.51163,730.096
435.04651,733.523
435.58139,738.292
436.11627,736.105
436.65115,729.003
437.18607,729.215
437.72095,741.214
438.25583,750.443
438.79071,741.963
439.32559,734.119
439.86047,756.549
440.39536,749.254
440.93024,760.334
441.46512,751.914
442,755.629
442.53488,781.444
443.06976,777.015
443.60464,774.282
444.13953,785.617
444.67444,783.451
445.20932,785.451
445.7442,786.604
446.27908,787.146
446.81396,795.355
447.34885,799.171
447.88373,814.237
448.41861,798.712
448.95349,815.206
449.48837,820.066
450.02325,826.016
450.55814,825.454
451.09302,829.223
451.6279,836.935
452.16278,846.074
452.69769,873.284
453.23257,871.784
453.76746,882.246
454.30234,865.946
454.83722,879.21
455.3721,876.466
455.90698,880.758
456.44186,867.906
456.97675,865.786
457.51163,870.623
458.04651,868.861
458.58139,882.927
459.11627,877.374
459.65115,893.195
460.18607,888.123
460.72095,913.013
461.25583,902.733
461.79071,895.198
462.32559,904.783
462.86047,902.383
463.39536,906.195
463.93024,908.118
464.46512,930.682
465,949.257
465.53488,950.346
466.06976,971.536
466.60464,944.903
467.13953,958.261
467.67444,959.113
468.20932,940.667
468.7442,960.072
469.27908,1004.22
469.81396,1064.5
470.34885,1083.81
470.88373,1076.3
471.41861,1065.97
471.95349,1034.29
472.48837,1016.73
473.02325,1002.58
473.55814,986.693
474.09302,974.984
474.6279,973.35
475.16281,1001.99
475.69769,1024.44
476.23257,1018.24
476.76746,1004.98
477.30234,988.02
477.83722,959.153
478.3721,929.603
478.90698,932.513
479.44186,934.926
479.97675,912.15
480.51163,934.397
481.04651,932.359
481.58139,946.511
482.11627,929.642
482.65118,954.137
483.18607,981.19
483.72095,1010.7
484.25583,1007.93
484.79071,997.444
485.32559,988.605
485.86047,987.555
486.39536,991.37
486.93024,977.006
487.46512,959.08
488,967.22
488.53488,960.78
489.06976,958.843
489.60464,958.871
490.13953,947.311
490.67444,953.041
491.20932,927.899
491.7442,974.469
492.27908,950.045
492.81396,951.732
493.34885,976.731
493.88373,1013.17
494.41861,1033.38
494.95349,1044.04
495.48837,1029.09
496.02325,994.315
496.55814,985.467
497.09302,999.927
497.6279,973.601
498.16281,964.374
498.69769,967.1
499.23257,970.828
499.76746,965.5
500.30234,948.734
500.83722,960.667
501.3721,939.107
501.90698,955.35
502.44186,953.17
502.97675,958.471
503.51163,955.708
504.04651,964.706
504.58139,989.735
505.11627,965.826
505.65118,961.748
506.18607,972.356
506.72095,975.858
507.25583,959.986
507.79071,983.144
508.32559,977.271
508.86047,974.863
509.39536,982.578
509.93024,958.176
510.46512,974.032
511,978.358
511.53488,991.259
512.06976,992.308
512.60468,991.696
513.13953,1007.92
513.67444,993.794
514.20929,981.805
514.7442,976.378
515.27905,998.513
515.81396,998.262
516.34882,981.592
516.88373,986.036
517.41864,998.093
517.95349,1000.23
518.4884,1007.67
519.02325,991.248
519.55817,997.614
520.09302,988.342
520.62793,999.008
521.16278,1018.21
521.69769,1007.22
522.23254,987.883
522.76746,1002.63
523.30231,1021.61
523.83722,1022.62
524.37207,1004.6
524.90698,1007.8
525.44189,1025.29
525.97675,1026.1
526.51166,994.316
527.04651,996.028
527.58142,1001.56
528.11627,1025.2
528.65118,1047.96
529.18604,1046.77
529.72095,1047.55
530.2558,1027.57
530.79071,1033.79
531.32556,1018.19
531.86047,1013.99
532.39539,1023.89
532.93024,1039.37
533.46515,1015.17
534,1004.73
534.53491,1027.8
535.06976,1038.08
535.60468,1022.85
536.13953,1032.29
536.67444,1046.68
537.20929,1044.77
537.7442,1034.73
538.27905,1025.16
538.81396,1025.85
539.34882,1034.88
539.88373,1033.25
540.41864,1027.75
540.95349,1031.11
541.4884,1042.79
542.02325,1031.54
542.55817,1037.05
543.09302,1069.88
543.62793,1063.47
544.16278,1075.54
544.69769,1047.71
545.23254,1041.74
545.76746,1047.11
546.30231,1049.45
546.83722,1038.13
547.37213,1044.11
547.90698,1048.69
548.44189,1048.03
548.97675,1041.8
549.51166,1048.75
550.04651,1045.43
550.58142,1039.2
551.11627,1057.7
551.65118,1056.3
552.18604,1037.57
552.72095,1056.99
553.2558,1075.79
553.79071,1072.68
554.32556,1053.4
554.86047,1060.71
555.39539,1071.84
555.93024,1048.26
556.46515,1043.39
557,1058.42
557.53491,1055.94
558.06976,1047.06
558.60468,1049.28
559.13953,1080.86
559.67444,1074.55
560.20929,1075.73
560.7442,1075.84
561.27905,1067.63
561.81396,1071.68
562.34882,1069.47
562.88373,1085.17
563.41864,1084.15
563.95349,1072.3
564.4884,1065.62
565.02325,1094.5
565.55817,1107.85
566.09302,1087.74
566.62793,1095.54
567.16278,1100.31
567.69769,1086.35
568.23254,1115.44
568.76746,1110.61
569.30231,1114.06
569.83722,1133.23
570.37213,1128.91
570.90698,1140.39
571.44189,1140.84
571.97675,1172.67
572.51166,1140.87
573.04651,1156.58
573.58142,1182.22
574.11627,1180.02
574.65118,1164.96
575.18604,1153.63
575.72095,1167.16
576.2558,1182.57
576.79071,1190.2
577.32556,1170.97
577.86047,1218.06
578.39539,1227.36
578.93024,1231.61
579.46515,1211.61
580,1217.91
580.53491,1236.77
581.06976,1225.53
581.60468,1224.82
582.13953,1246.72
582.67444,1227.55
583.20929,1260.85
583.7442,1270.5
584.27905,1301.2
584.81396,1314.68
585.34888,1297.94
585.88373,1284.34
586.41864,1311.28
586.95349,1316.57
587.4884,1323.75
588.02325,1329.53
588.55817,1328.81
589.09302,1334.57
589.62793,1351.7
590.16278,1358.43
590.69769,1349.76
591.23254,1356.53
591.76746,1367.67
592.30231,1375.14
592.83722,1382.01
593.37213,1397.88
593.90698,1444.66
594.44189,1410.98
594.97675,1376.95
595.51166,1391.51
596.04651,1386.91
596.58142,1436.34
597.11627,1432.1
597.65118,1398.54
598.18604,1410.88
598.72095,1421.43
599.2558,1409.52
599.79071,1400.04
600.32556,1391.98
600.86047,1404.66
601.39539,1418.27
601.93024,1400.47
602.46515,1385.09
603,1391.56
603.53491,1359.21
604.06976,1380.19
604.60468,1403.32
605.13953,1384.37
605.67444,1373.63
606.20929,1361.36
606.7442,1368.91
607.27905,1389.43
607.81396,1371.09
608.34888,1356.55
608.88373,1360.34
609.41864,1337.6
609.95349,1323.85
610.4884,1338.64
611.02325,1312.43
611.55817,1302.19
612.09302,1314.42
612.62793,1321.47
613.16278,1289.84
613.69769,1294.88
614.23254,1300.89
614.76746,1314.48
615.30231,1277.34
615.83722,1290.78
616.37213,1286.66
616.90698,1268.86
617.44189,1277.16
617.97675,1298.45
618.51166,1274.76
619.04651,1260.76
619.58142,1270.97
620.11627,1286.31
620.65118,1256.8
621.18604,1291.97
621.72095,1258.39
622.2558,1261.79
622.79071,1262.47
623.32556,1242.3
623.86047,1253.13
624.39539,1248.58
624.93024,1245.92
625.46515,1234.53
626,1256.63
626.53491,1237.98
627.06976,1222.68
627.60468,1226.9
628.13953,1210.89
628.67444,1239.8
629.20929,1183.48
629.7442,1221.73
630.27905,1218.2
630.81396,1177.13
631.34888,1205.84
631.88373,1204.31
632.41864,1203.04
632.95349,1200.89
633.4884,1214.3
634.02325,1198.76
634.55817,1212.29
635.09302,1187.47
635.62793,1205.92
636.16278,1223.94
636.69769,1180.79
637.23254,1187.74
637.76746,1201.71
638.30231,1172.54
638.83722,1161.05
639.37213,1163.82
639.90698,1155.71
640.44189,1170.44
640.97675,1167.95
641.51166,1158.86
642.04651,1146.15
642.58142,1141.37
643.11627,1147.02
643.65118,1175.73
644.18604,1175.83
644.72095,1185.91
645.2558,1164.45
645.79071,1159.81
646.32562,1178.59
646.86047,1166.14
647.39539,1151.88
647.93024,1186.04
648.46515,1171.84
649,1145.71
649.53491,1186.99
650.06976,1190.27
650.60468,1198.98
651.13953,1219.28
651.67444,1218.91
652.20929,1210.48
652.7442,1219.27
653.27905,1174.37
653.81396,1179.05
654.34888,1192.41
654.88373,1180.73
655.41864,1159.42
655.95349,1160.65
656.4884,1161.86
657.02325,1156.17
657.55817,1131.99
658.09302,1126.27
658.62793,1147.97
659.16278,1146.84
659.69769,1136.56
660.23254,1133.21
660.76746,1130.29
661.30231,1107.48
661.83722,1112.4
662.37213,1109.68
662.90698,1094.91
663.44189,1105.56
663.97675,1115.16
664.51166,1105.69
665.04651,1101.99
665.58142,1117.21
666.11627,1121.05
666.65118,1113.24
667.18604,1097.75
667.72095,1099.64
668.2558,1098.45
668.79071,1093.19
669.32562,1101.05
669.86047,1093.14
670.39539,1099.57
670.93024,1103.6
671.46515,1104.3
672,1106.85
672.53491,1093.87
673.06976,1073.88
673.60468,1094
674.13953,1090.2
674.67444,1076.88
675.20929,1082.63
675.7442,1084.23
676.27905,1072.95
676.81396,1066.41
677.34888,1075.71
677.88373,1060.28
678.41864,1055.31
678.95349,1062.77
679.4884,1074.55
680.02325,1058.38
680.55817,1052.38
681.09302,1022.25
681.62793,1029.73
682.16278,1030.24
682.69769,1035.18
683.23254,1026.66
683.76746,1018.94
684.30237,1027.37
684.83722,1033.31
685.37213,1054.22
685.90698,1064.02
686.44189,1098.33
686.97675,1095.5
687.51166,1061.13
688.04651,1062.52
688.58142,1058.11
689.11627,1066.28
689.65118,1051.28
690.18604,1079.08
690.72095,1060.94
691.2558,1065.02
691.79071,1126.18
692.32562,1105.08
692.86047,1097.53
693.39539,1088.02
693.93024,1085.8
694.46515,1085.44
695,1068.5
695.53491,1044.31
696.06976,1037.16
696.60468,1019.45
697.13953,997.698
697.67444,980.678
698.20929,972.32
698.7442,982.567
699.27905,974.689
699.81396,957.711
700.34888,981.423
700.88373,964.88
701.41864,956.926
701.95349,956.748
702.4884,961.266
703.02325,953.568
703.55817,940.848
704.09302,960.718
704.62793,944.5
705.16278,932.232
705.69769,931.406
706.23254,924.627
706.76746,946.628
707.30237,920.254
707.83722,926.988
708.37213,904.093
708.90698,923.366
709.44189,921.635
709.97675,920.772
710.51166,936.099
711.04651,943.995
711.58142,947.599
712.11627,942.759
712.65118,954.124
713.18604,958.254
713.72095,970.379
714.2558,1008.76
714.79071,1025.88
715.32562,1042.96
715.86047,1048.89
716.39539,1053.17
716.93024,1052.44
717.46515,1062.55
718,1037.05
718.53491,983.355
719.06976,1000.22
719.60468,1006.45
720.13953,995.202
720.67444,963.326
721.20929,985.25
721.7442,961.13
722.27911,934.268
722.81396,941.276
723.34888,934.573
723.88373,935.674
724.41864,917.504
724.95349,920.381
725.4884,909.755
726.02325,926.033
726.55817,924.92
727.09302,896.366
727.62793,901.27
728.16278,909.613
728.69769,923.9
729.23254,923.003
729.76746,920.152
730.30237,938.028
730.83722,960.283
731.37213,964.882
731.90698,963.654
732.44189,984.299
732.97675,975.859
733.51166,990.71
734.04651,992.86
734.58142,1002.23
735.11627,1031.84
735.65118,1008.2
736.18604,1001.3
736.72095,1025.95
737.2558,1020.98
737.79071,999.21
738.32562,966.665
738.86047,957.761
739.39539,944.361
739.93024,927.285
740.46515,901.14
741,916.874
741.53491,933.344
742.06976,922.136
742.60468,939.494
743.13953,981.76
743.67444,972.448
744.20929,976.855
744.7442,979.921
745.27911,957.815
745.81396,950.753
746.34888,948.169
746.88373,916.251
747.41864,915.562
747.95349,903.776
748.4884,888.25
749.02325,906.304
749.55817,904.146
750.09302,891.923
750.62793,896.671
751.16278,901.884
751.69769,894.043
752.23254,885.202
752.76746,889.255
753.30237,896.513
753.83722,877.192
754.37213,876.381
754.90698,857.048
755.44189,868.361
755.97675,878.541
756.51166,870.118
757.04651,877.378
757.58142,868.097
758.11627,866.405
758.65118,860.836
759.18604,880.835
759.72095,877.694
760.25586,873.091
760.79071,884.167
761.32562,843.64
761.86047,863.757
762.39539,897.066
762.93024,901.951
763.46515,890.151
764,880.892
764.53491,912.849
765.06976,891.042
765.60468,910.161
766.13953,925.72
766.67444,1025.03
767.20929,1184.88
767.7442,1207.85
768.27911,1190.14
768.81396,1100.54
769.34888,1040.44
769.88373,975.945
770.41864,945.224
770.95349,911.892
771.4884,888.448
772.02325,869.823
772.55817,843.279
773.09302,841.983
773.62793,835.167
774.16278,801.509
774.69769,813.55
775.23254,819.515
775.76746,802.585
776.30237,779.775
776.83722,786.356
777.37213,789.062
777.90698,770.687
778.44189,769.122
778.97675,775.832
779.51166,766.317
780.04651,775.254
780.58142,760.396
781.11627,756.357
781.65118,765.762
782.18604,767.601
782.72095,773.551
783.25586,768.012
783.79071,770.656
784.32562,762.26
784.86047,759.143
785.39539,771.329
785.93024,764.975
786.46515,753.812
787,774.117
787.53491,771.271
788.06976,769.591
788.60468,760.848
789.13953,766.093
789.67444,761.112
790.20929,766.342
790.7442,759.921
791.27911,773.918
791.81396,809.841
792.34888,842.796
792.88373,851.271
793.41864,833.997
793.95349,827.511
794.4884,807.52
795.02325,777.433
795.55817,781.512
796.09302,784.899
796.62793,779.967
797.16278,786.032
797.69769,749.507
798.23254,754.923
798.76746,760.032
799.30237,787.355
799.83722,800.325
800.37213,830.091
800.90698,832.193
801.44189,816.086
801.97675,820.557
802.51166,805.794
803.04651,795.36
803.58142,786.807
804.11627,789.389
804.65118,789.628
805.18604,792.415
805.72095,781.41
806.25586,776.296
806.79071,779.273
807.32562,767.248
807.86047,770.473
808.39539,765.879
808.93024,770.24
809.46515,784.851
810,789.383
810.53491,778.777
811.06976,800.533
811.60468,802.948
812.13953,804.667
812.67444,802.339
813.20929,797.54
813.7442,783.919
814.27911,791.776
814.81396,797.185
815.34888,779.289
815.88373,791.292
816.41864,792.124
816.95349,776.055
817.4884,759.569
818.02325,763.545
818.55817,784.279
819.09302,798.644
819.62793,791.719
820.16278,786.679
820.69769,801.953
821.2326,812.543
821.76746,833.139
822.30237,830.696
822.83722,865.926
823.37213,896.51
823.90698,956.79
824.44189,1030.98
824.97675,1206.39
825.51166,1876.06
826.04651,3259.13
826.58142,3881.71
827.11627,3769.94
827.65118,3390.03
828.18604,2801.45
828.72095,2324.58
829.25586,2065.24
829.79071,1855.76
830.32562,1876.47
830.86047,2082.37
831.39539,2070.43
831.93024,1875.55
832.46515,1623.32
833,1416
833.53491,1243.13
834.06976,1095.79
834.60468,1026.09
835.13953,966.628
835.67444,915.374
836.20929,895.532
836.7442,958.844
837.27911,1113.94
837.81396,1271.61
838.34888,1309.69
838.88373,1212.19
839.41864,1111.73
839.95349,1036.85
840.4884,953.036
841.02325,876.337
841.55817,820.568
842.09302,786.692
842.62793,780.96
843.16278,787.238
843.69769,867.377
844.2326,906.605
844.76746,896.818
845.30237,854.265
845.83722,791.339
846.37213,779.63
846.90698,751.025
847.44189,722.205
847.97675,709.097
848.51166,697.667
849.04651,691.59
849.58142,675.652
850.11627,667.117
850.65118,667.728
851.18604,663.105
851.72095,667.159
852.25586,659.335
852.79071,651.223
853.32562,666.653
853.86047,658.824
854.39539,650.068
854.93024,652.076
855.46515,655.516
856,653.904
856.53491,650.346
857.06976,657.016
857.60468,645.949
858.13953,648.689
858.67444,651.31
859.20935,653.32
859.7442,655.872
860.27911,658.669
860.81396,650.346
861.34888,648.946
861.88373,648.907
862.41864,661.888
862.95349,646.294
863.4884,646.506
864.02325,659.431
864.55817,651.357
865.09302,644.185
865.62793,655.072
866.16278,651.498
866.69769,655.931
867.2326,656.81
867.76746,649.304
868.30237,654.339
868.83722,666.049
869.37213,661.284
869.90698,671.824
870.44189,664.616
870.97675,664.146
871.51166,656.067
872.04651,670.004
872.58142,665.969
873.11627,673.599
873.65118,668.848
874.18604,671.869
874.72095,673.313
875.25586,673.714
875.79071,678.435
876.32562,683.704
876.86047,693.419
877.39539,696.105
877.93024,689.191
878.46515,697.094
879,700.364
879.53491,695.559
880.06976,696.839
880.60468,705.56
881.13953,713.316
881.67444,720.404
882.20935,730.273
882.7442,753.848
883.27911,785.753
883.81396,884.471
884.34888,1221.37
884.88373,1832.2
885.41864,2244.55
885.95349,2314.22
886.4884,2082.79
887.02325,1807.6
887.55817,1533.51
888.09302,1320.14
888.62793,1156.8
889.16278,1040.33
889.69769,956.618
890.2326,895.15
890.76746,848.149
891.30237,804.311
891.83722,780.016
892.37213,755.25
892.90698,726.321
893.44189,726.037
893.97675,740.013
894.51166,724.232
895.04651,729.637
895.58142,737.152
896.11627,749.657
896.65118,764.185
897.18604,811.147
897.72095,904.224
898.25586,996.831
898.79071,1064.07
899.32562,1059.29
899.86047,1003.83
900.39539,928.663
900.93024,867.223
901.46515,839.888
902,794.11
902.53491,770.986
903.06976,751.371
903.60468,717.355
904.13953,707.738
904.67444,708.176
905.20935,698.396
905.7442,709.369
906.27911,703.01
906.81396,768.101
907.34888,962.172
907.88373,1182.74
908.41864,1200.44
908.95349,1093.9
909.4884,971.572
910.02325,861.342
910.55817,796.409
911.09302,759.051
911.62793,738.32
912.16278,718.869
912.69769,697.59
913.2326,677.57
913.76746,671.097
914.30237,658.729
914.83722,655.418
915.37213,671.148
915.90698,686.517
916.44189,681.039
916.97675,705.864
917.51166,737.92
918.04651,813.618
918.58142,941.101
919.11627,1126.98
919.65118,1243.65
920.1861,1251.75
920.72095,1221.49
921.25586,1139.57
921.79071,1040.11
922.32562,961.812
922.86047,882.772
923.39539,822.822
923.93024,790.596
924.46515,759.747
925,729.144
925.53491,721.833
926.06976,715.611
926.60468,701.632
927.13953,700.51
927.67444,686.906
928.20935,677.76
928.7442,677.098
929.27911,658.287
929.81396,665.266
930.34888,659.339
930.88373,642.093
931.41864,653.241
931.95349,651.118
932.4884,648.9
933.02325,650.738
933.55817,662.112
934.09302,660.565
934.62793,660.698
935.16278,658.331
935.69769,660.523
936.2326,648.238
936.76746,642.914
937.30237,654.389
937.83722,646.81
938.37213,656.174
938.90698,669.65
939.44189,675.239
939.97675,676.16
940.51166,708.93
941.04651,729.61
941.58142,736.988
942.11627,734.532
942.65118,736.555
943.1861,733.588
943.72095,729.795
944.25586,737.676
944.79071,734.138
945.32562,732.611
945.86047,713.465
946.39539,704.994
946.93024,702.266
947.46515,687.138
948,697.168
948.53491,691.382
949.06976,693.347
949.60468,712.795
950.13953,706.822
950.67444,702.298
951.20935,708.224
951.7442,706.995
952.27911,712.101
952.81396,706.031
953.34888,719.216
953.88373,722.485
954.41864,731.148
954.95349,743.478
955.4884,734.776
956.02325,729.64
956.55817,737.181
957.09302,730.841
957.62793,714.802
958.16284,700.7
958.69769,687.456
959.2326,675.835
959.76746,661.117
960.30237,646.711
960.83722,648.318
961.37213,631.432
961.90698,636.245
962.44189,643.167
962.97675,631.353
963.51166,636.48
964.04651,630.736
964.58142,629.413
965.11627,628.707
965.65118,619.177
966.1861,614.612
966.72095,621.617
967.25586,618.526
967.79071,623.988
968.32562,626.644
968.86047,622.249
969.39539,619.212
969.93024,622.569
970.46515,629.997
971,636.981
971.53491,638.148
972.06976,643.615
972.60468,639.98
973.13953,643.669
973.67444,639.65
974.20935,646.552
974.7442,652.939
975.27911,658.742
975.81396,651.435
976.34888,650.909
976.88373,652.373
977.41864,655.944
977.95349,646.976
978.4884,639.12
979.02325,639.291
979.55817,634.334
980.09302,627.15
980.62793,636.951
981.16284,654.048
981.69769,667.869
982.2326,760.155
982.76746,879.749
983.30237,963.274
983.83722,957.353
984.37213,891.895
984.90698,837.115
985.44189,769.482
985.97675,714.499
986.51166,681.406
987.04651,666.651
987.58142,645.031
988.11627,628.573
988.65118,626.919
989.1861,624.784
989.72095,616.481
990.25586,613.591
990.79071,617.623
991.32562,621.331
991.86047,622.356
992.39539,632.67
992.93024,623.284
993.46515,626.896
994,642.567
994.53491,673.602
995.06976,738.913
995.60468,785.174
996.13959,818.608
996.67444,789.538
997.20935,759.647
997.7442,735.401
998.27911,721.148
998.81396,692.347
999.34888,654.542
999.88373,647.734
1000.4186,633.759
1000.9535,619.515
1001.4884,619.276
1002.0233,609.272
1002.5582,608.725
1003.093,611.622
1003.6279,607.105
1004.1628,611.046
1004.6977,605.457
1005.2326,601.874
1005.7675,609.987
1006.3024,605.021
1006.8372,600.051
1007.3721,605.024
1007.907,601.562
1008.4419,601.471
1008.9767,601.504
1009.5117,602.051
1010.0465,602.582
1010.5814,603.286
1011.1163,599.611
1011.6512,603.137
1012.1861,603.334
1012.7209,603.794
1013.2559,606.61
1013.7907,604.674
1014.3256,608.97
1014.8605,608.528
1015.3954,606.331
1015.9302,606.893
1016.4651,603.231
1017,605.104
1017.5349,603.019
1018.0698,604.636
1018.6047,607.048
1019.1396,602.159
1019.6744,599.226
1020.2094,601.681
1020.7442,596.438
1021.2791,602.472
1021.814,601.688
1022.3489,597.46
1022.8837,593.539
1023.4186,595.742
1023.9535,595.261
1024.4884,594.567
1025.0233,591.321
1025.5581,597.067
1026.093,598.91
1026.6279,590.905
1027.1628,593.391
1027.6978,597.849
1028.2325,592.732
1028.7675,592.524
1029.3024,592.99
1029.8373,593.391
1030.3721,591.74
1030.907,593.678
1031.4419,593.354
1031.9768,591.111
1032.5116,591.667
1033.0465,589.923
1033.5814,595.043
1034.1163,590.821
1034.6512,587.905
1035.186,593.835
1035.7209,594.59
1036.2559,596.527
1036.7908,593.829
1037.3256,591.236
1037.8605,594.058
1038.3954,597.921
1038.9303,587.988
1039.4651,592.057
1040,594.59
1040.5349,591.998
1041.0698,592.721
1041.6046,592.327
1042.1395,593.337
1042.6744,591.401
1043.2094,590.972
1043.7443,590.172
1044.2791,590.836
1044.814,594.365
1045.3489,593.58
1045.8838,596.85
1046.4186,592.766
1046.9535,590.052
1047.4884,589.482
1048.0233,593.416
1048.5581,592.829
1049.093,592.617
1049.6279,588.979
1050.1628,594.075
1050.6978,593.775
1051.2325,593.711
1051.7675,589.074
1052.3024,588.984
1052.8373,590.329
1053.3721,588.443
1053.907,591.523
1054.4419,590.736
1054.9768,588.093
1055.5116,594.573
1056.0465,590.612
1056.5814,593.705
1057.1163,589.587
1057.6512,592.802
1058.186,590.259
1058.7209,594.616
1059.2559,591.851
1059.7908,593.822
1060.3256,591.52
1060.8605,593.317
1061.3954,593.234
1061.9303,593.001
1062.4651,591.011
1063,589.162
1063.5349,591.267
1064.0698,596.475
1064.6047,595.145
1065.1395,592.442
1065.6744,594.552
1066.2094,593.94
1066.7443,589.211
1067.2791,588.868
1067.814,590.933
1068.3489,591.394
1068.8838,591.383
1069.4186,592.03
1069.9535,595.51
1070.4884,595.857
1071.0233,590.911
1071.5581,591.597
1072.093,592.933
1072.6279,592.588
1073.1628,594.337
1073.6978,593.439
1074.2325,592.203
1074.7675,591.415
1075.3024,591.913
1075.8373,591.789
1076.3721,590.196
1076.907,588.958
1077.4419,592.182
1077.9768,591.139
1078.5116,591.931
1079.0465,592.527
1079.5814,589.792
1080.1163,592.537
1080.6512,594.431
1081.186,593.999
1081.7209,590.436
1082.2559,594.035
1082.7908,593.974
1083.3256,592.189
1083.8605,590.774
1084.3954,593.463
1084.9303,595.235
1085.4651,591.27
1086,594.236
1086.5349,596.417
1087.0698,593.093
1087.6047,593.214
1088.1395,593.738
1088.6744,590.619
1089.2094,593.929
1089.7443,592.027
1090.2791,592.301
1090.814,592.982
1091.3489,592.289
1091.8838,590.933
1092.4186,591.347
1092.9535,593.159
1093.4884,591.131
1094.0233,592.826
1094.5581,591.542
1095.093,592.695
1095.6279,595.951
1096.1628,592.604
1096.6978,592.164
1097.2325,591.754
1097.7675,593.103
1098.3024,591.169
1098.8373,596.225
1099.3721,596.305
1099.907,592.76
1100.4419,591.268
1100.9768,592.013
1101.5116,588.169
1102.0465,590.24
1102.5814,593.085
1103.1163,591.46
1103.6512,592.461
1104.186,590.867
1104.7209,592.855
1105.2559,592.236
1105.7908,593.131
1106.3256,593.454
1106.8605,590.776
1107.3954,592.172
1107.9303,588.232
1108.4651,590.614
1109,594.198
1109.5349,593.172
1110.0698,588.716
1110.6047,593.201
1111.1395,593.07
1111.6744,595.557
1112.2094,593.518
1112.7443,591.552
1113.2791,593.185
1113.814,595.507
1114.3489,593.234
1114.8838,590.018
1115.4186,594.424
1115.9535,594.397
1116.4884,592.99
1117.0233,587.779
1117.5581,589.107
1118.093,589.43
1118.6279,588.892
1119.1628,591.011
1119.6978,593.208
1120.2325,593.163
1120.7675,586.901
1121.3024,591.8
1121.8373,593.877
1122.3721,593.739
1122.907,596.473
1123.4419,590.479
1123.9768,591.736
1124.5116,591.029
1125.0465,590.648
1125.5814,593.082
1126.1163,592.355
1126.6512,589.913
1127.186,590.394
1127.7209,595.695
1128.2559,593.439
1128.7908,590.731
1129.3256,593.895
1129.8605,597.967
1130.3954,589.489
1130.9303,591.961
1131.4651,595.371
1132,592.255
1132.5349,591.35
1133.0698,594.035
1133.6047,592.381
1134.1395,591.473
1134.6744,591.186
1135.2094,593.533
1135.7443,588.738
1136.2791,591.302
1136.814,588.363
1137.3489,588.849
1137.8838,593.722
1138.4186,592.218
1138.9535,593.974
1139.4884,591.882
1140.0233,592.416
1140.5581,588.907
1141.093,587.589
1141.6279,594.584
1142.1628,588.956
1142.6978,590.649
1143.2325,594.219
1143.7675,591.228
1144.3024,589.48
1144.8373,593.089
1145.3721,588.989
1145.907,590.425
1146.4419,591.357
1146.9768,594.347
1147.5116,593.463
1148.0465,591.113
1148.5814,589.897
1149.1163,592.577
1149.6512,594.034
1150.186,585.648
1150.7209,590.357
1151.2559,593.682
1151.7908,590.507
1152.3256,589.772
1152.8605,590.607
1153.3954,590.451
1153.9303,591.181
1154.4651,593.861
1155,594.621
1155.5349,594.765
1156.0698,591.568
1156.6047,591.571
1157.1395,592.157
1157.6744,591.918
1158.2094,592.937
1158.7443,593.039
1159.2791,588.328
1159.814,594.531
1160.3489,589.678
1160.8838,587.965
1161.4186,591.284
1161.9535,595.906
1162.4884,592.756
1163.0233,591.694
1163.5582,595.303
1164.093,595.422
1164.6279,592.941
1165.1628,593.251
1165.6978,590.717
1166.2325,591.599
1166.7675,592.028
1167.3024,587.182
1167.8373,588.641
1168.3721,589.423
1168.907,592.493
1169.4419,591.158
1169.9768,590.876
1170.5116,590.172
1171.0465,590.252
1171.5814,590.719
1172.1163,593.17
1172.6512,593.032
1173.186,592.57
1173.7209,593.475
1174.2559,596.453
1174.7908,591.764
1175.3256,589.826
1175.8605,587.63
1176.3954,591.852
1176.9303,591.863
1177.4651,591.516
1178,592.907
1178.5349,598.016
1179.0698,588.806
1179.6047,586.75
1180.1395,588.909
1180.6744,595.059
1181.2094,593.181
1181.7443,589.655
1182.2791,592.269
1182.814,591.775
1183.3489,591.906
1183.8838,588.537
1184.4186,592.735
1184.9535,593.673
1185.4884,593.33
1186.0233,595.378
1186.5582,590.517
1187.093,591.836
1187.6279,590.392
1188.1628,593.157
1188.6978,590.658
1189.2325,593.013
1189.7675,595.236
1190.3024,594.022
1190.8373,590.912
1191.3721,592.621
1191.907,589.16
1192.4419,594.288
1192.9768,592.232
1193.5116,586.93
1194.0465,588.928
1194.5814,588.884
1195.1163,593.796
1195.6512,589.441
1196.186,590.42
1196.7209,593.352
1197.2559,592.043
1197.7908,591.98
1198.3256,592.997
1198.8605,592.668
1199.3954,590.829
1199.9303,591.535
1200.4651,589.082
1201,591.393
1201.5349,587.852
1202.0698,590.352
1202.6047,590.454
1203.1395,587.967
1203.6744,594.767
1204.2094,591.655
1204.7443,587.833
1205.2791,593.837
1205.814,595.005
1206.3489,592.581
1206.8838,591.009
1207.4186,590.945
1207.9535,591.248
1208.4884,591.497
1209.0233,589.367
1209.5582,593.316
1210.093,591.202
1210.6279,589.361
1211.1628,588.873
1211.6978,589.852
1212.2325,593.289
1212.7675,593.623
1213.3024,591.649
1213.8373,589.228
1214.3721,588.953
1214.907,592.076
1215.4419,591.199
1215.9768,588.736
1216.5116,592.24
1217.0465,593.171
1217.5814,595.802
1218.1163,595.952
1218.6512,591.254
1219.186,592.123
1219.7209,588.26
1220.2559,592.146
1220.7908,593.205
1221.3256,589.268
1221.8605,588.438
1222.3954,592.161
1222.9303,593.566
1223.4651,592.641
1224,591.266
1224.5349,590.933
1225.0698,591.198
1225.6047,586.924
1226.1395,591.535
1226.6744,590.902
1227.2094,596.323
1227.7443,591.525
1228.2791,589.082
1228.814,594.521
1229.3489,595.413
1229.8838,588.99
1230.4186,588.499
1230.9535,587.976
1231.4884,590.422
1232.0233,589.411
1232.5582,590.404
1233.093,596.145
1233.6279,590.737
1234.1628,593.02
1234.6978,589.693
1235.2325,591.225
1235.7675,589.986
1236.3024,589.413
1236.8373,591.966
1237.3721,593.017
1237.907,587.937
1238.4419,589.029
1238.9768,591.864
1239.5117,593.065
1240.0465,590.041
1240.5814,589.278
1241.1163,589.148
1241.6512,591.312
1242.186,592.032
1242.7209,589.342
1243.2559,589.57
1243.7908,595.159
1244.3256,588.717
1244.8605,592.49
1245.3954,591.649
1245.9303,589.479
1246.4651,591.163
1247,587.837
1247.5349,595.429
1248.0698,590.792
1248.6047,593.274
1249.1395,592.088
1249.6744,588.012
1250.2094,592.125
1250.7443,592.186
1251.2791,591.346
1251.814,589.156
1252.3489,587.233
1252.8838,590.623
1253.4186,590.056
1253.9535,587.405
1254.4884,587.397
1255.0233,590.987
1255.5582,594.826
1256.093,589.919
1256.6279,587.856
1257.1628,593.948
1257.6978,592.695
1258.2325,589.463
1258.7675,592.497
1259.3024,588.31
1259.8373,587.273
1260.3721,589.946
1260.907,593.144
1261.4419,593.136
1261.9768,589.41
1262.5117,589.927
1263.0465,588.719
1263.5814,592.959
1264.1163,593.68
1264.6512,590.718
1265.186,591.97
1265.7209,591.717
1266.2559,596.667
1266.7908,595.823
1267.3256,589.384
1267.8605,590.162
1268.3954,589.326
1268.9303,586.775
1269.4651,592.346
1270,592.446
1270.5349,591.375
1271.0698,591.113
1271.6047,592.069
1272.1395,593.517
1272.6744,594.152
1273.2094,589.984
1273.7443,593.208
1274.2791,589.931
1274.814,591.061
1275.3489,591.389
1275.8838,591.156
1276.4186,593.223
1276.9535,589.985
1277.4884,590.085
1278.0233,591.071
1278.5582,591.581
1279.093,594.28
1279.6279,592.669
1280.1628,589.031
1280.6978,589.063
1281.2325,591.933
1281.7675,590.882
1282.3024,590.38
1282.8373,594.497
1283.3721,594.233
1283.907,590.844
1284.4419,591.784
1284.9768,589.968
1285.5117,590.787
1286.0465,589.758
1286.5814,588.213
1287.1163,591.125
1287.6512,590.39
1288.186,592.905
1288.7209,591.534
1289.2559,592.644
1289.7908,593.171
1290.3256,593.48
1290.8605,591.23
1291.3954,591.793
1291.9303,592.683
1292.4651,592.267
1293,587.526
1293.5349,591.068
1294.0698,592.879
1294.6047,589.616
1295.1395,591.528
1295.6744,590.723
1296.2094,591.832
1296.7443,589.089
1297.2791,590.274
1297.814,591.406
1298.3489,589.348
1298.8838,591.792
1299.4186,591.817
1299.9535,590.789
1300.4884,591.212
1301.0233,591.362
1301.5582,591.544
1302.093,591.032
1302.6279,591.536
1303.1628,589.701
1303.6978,588.795
1304.2325,589.331
1304.7675,590.898
1305.3024,588.413
1305.8373,588.311
1306.3721,589.972
1306.907,590.666
1307.4419,590.7
1307.9768,592.274
1308.5117,591.016
1309.0465,591.933
1309.5814,590.708
1310.1163,591.113
1310.6512,589.807
1311.186,588.237
1311.7209,592.99
1312.2559,591.472
1312.7908,587.062
1313.3256,588.735
1313.8605,590.822
1314.3954,593.16
1314.9303,585.142
1315.4651,591.318
1316,592.387
1316.5349,592.576
1317.0698,587.235
1317.6047,597.568
1318.1395,594.207
1318.6744,592.063
1319.2094,593.239
1319.7443,592.595
1320.2791,590.777
1320.814,589.574
1321.3489,591.807
1321.8838,589.739
1322.4186,589.231
1322.9535,595.652
1323.4884,592.443
1324.0233,586.008
1324.5582,592.118
1325.093,590.164
1325.6279,592.54
1326.1628,585.892
1326.6978,587.29
1327.2325,589.712
1327.7675,587.88
1328.3024,590.306
1328.8373,593.658
1329.3721,592.178
1329.907,591.22
1330.4419,587.946
1330.9768,588.691
1331.5117,593.925
1332.0465,589.682
1332.5814,586.941
1333.1163,589.986
1333.6512,591.918
1334.186,588.85
1334.7209,588.809
1335.2559,588.572
1335.7908,592.883
1336.3256,589.703
1336.8605,589.335
1337.3954,591.041
1337.9303,586.265
1338.4652,590.938
1339,590.668
1339.5349,591.072
1340.0698,587.537
1340.6047,590.258
1341.1395,591.025
1341.6744,591.226
1342.2094,586.004
1342.7443,591.202
1343.2791,590.669
1343.814,587.816
1344.3489,588.01
1344.8838,588.255
1345.4186,588.997
1345.9535,589.592
1346.4884,591.883
1347.0233,590.896
1347.5582,590.44
1348.093,590.704
1348.6279,588.729
1349.1628,592.223
1349.6978,591.709
1350.2325,588.962
1350.7675,591.726
1351.3024,593.996
1351.8373,591.825
1352.3721,586.602
1352.907,586.634
1353.4419,591.446
1353.9768,590.874
1354.5117,591
1355.0465,591.214
1355.5814,592.82
1356.1163,591.583
1356.6512,589.185
1357.186,584.534
1357.7209,589.175
1358.2559,593.866
1358.7908,588.43
1359.3256,591.388
1359.8605,592.967
1360.3954,593.997
1360.9303,591.861
1361.4652,589.108
1362,592.121
1362.5349,590.964
1363.0698,592.325
1363.6047,591.068
1364.1395,588.638
1364.6744,589.294
1365.2094,587.992
1365.7443,590.516
1366.2791,590.453
1366.814,588.603
1367.3489,589.847
1367.8838,589.988
1368.4186,590.746
1368.9535,592.879
1369.4884,591.19
1370.0233,585.096
1370.5582,593.093
1371.093,587.717
1371.6279,591.961
1372.1628,592.11
1372.6978,586.487
1373.2325,590.468
1373.7675,596.059
1374.3024,593.525
1374.8373,590.491
1375.3721,590.32
1375.907,593.853
1376.4419,592.704
1376.9768,590.783
1377.5117,593.718
1378.0465,592.351
1378.5814,589.926
1379.1163,593.98
1379.6512,589.995
1380.186,592.973
1380.7209,589.614
1381.2559,590.213
1381.7908,589.466
1382.3256,590.036
1382.8605,594.801
1383.3954,589.249
1383.9303,589.467
1384.4652,592.367
1385,591.115
1385.5349,588.773
1386.0698,594.402
1386.6047,589.865
1387.1395,589.718
1387.6744,591.944
1388.2094,591.896
1388.7443,586.944
1389.2791,590.387
1389.814,591.127
1390.3489,590.297
1390.8838,592.3
1391.4186,593.305
1391.9535,586.668
1392.4884,589.829
1393.0233,590.765
1393.5582,589.759
1394.093,589.674
1394.6279,594.709
1395.1628,591.026
1395.6978,590.404
1396.2325,594.804
1396.7675,593.172
1397.3024,587.966
1397.8373,591.448
1398.3721,595.123
1398.907,591.935
1399.4419,589.463
1399.9768,589.656
1400.5117,588.914
1401.0465,592.364
1401.5814,590.137
1402.1163,590.496
1402.6512,590.683
1403.186,590.128
1403.7209,591.662
1404.2559,590.915
1404.7908,593.891
1405.3256,590.315
1405.8605,589.983
1406.3954,588.947
1406.9303,586.835
1407.4652,587.626
1408,590.544
1408.5349,587.156
1409.0698,592.915
1409.6047,594.362
1410.1395,590.726
1410.6744,589.994
1411.2094,589.473
1411.7443,589.081
1412.2791,592.739
1412.814,589.287
1413.3489,588.312
1413.8838,591.137
1414.4186,588.018
1414.9535,591.915
1415.4884,590.904
1416.0233,590.354
1416.5582,593.56
1417.093,589.294
1417.6279,590.829
1418.1628,588.701
1418.6978,593.521
1419.2325,589.117
1419.7675,591.172
1420.3024,588.563
1420.8373,592.082
1421.3721,591.466
1421.907,590.657
1422.4419,589.403
1422.9768,589.661
1423.5117,592.722
1424.0465,594.091
1424.5814,587.957
1425.1163,592.379
1425.6512,591.296
1426.186,588.266
1426.7209,591.125
1427.2559,589.932
1427.7908,589.342
1428.3256,590.684
1428.8605,593.15
1429.3954,590.703
1429.9303,593.677
1430.4652,589.5
1431,590.693
1431.5349,592.439
1432.0698,590.715
1432.6047,594.967
1433.1395,590.077
1433.6744,589.103
1434.2094,590.849
1434.7443,589.426
1435.2791,592.873
1435.814,589.563
1436.3489,592.494
1436.8838,592.55
1437.4187,587.474
1437.9535,590.692
1438.4884,593.123
1439.0233,590.5
1439.5582,594.709
1440.093,588.92
1440.6279,587.632
1441.1628,595.854
1441.6978,590.281
1442.2325,590.017
1442.7675,586.212
1443.3024,594.052
1443.8373,590.392
1444.3721,594.476
1444.907,590.234
1445.4419,597.539
1445.9768,596.587
1446.5117,590.628
1447.0465,591.734
1447.5814,591.269
1448.1163,587.737
1448.6512,593.083
1449.186,594.931
1449.7209,590.476
1450.2559,590.549
1450.7908,594.989
1451.3256,591.998
1451.8605,593.91
1452.3954,589.845
1452.9303,590.87
1453.4652,588.861
1454,590.689
1454.5349,592.372
1455.0698,593.638
1455.6047,590.06
1456.1395,590.415
1456.6744,592.578
1457.2094,589.405
1457.7443,594.132
1458.2791,592.112
1458.814,589.789
1459.3489,591.896
1459.8838,590.187
1460.4187,587.072
1460.9535,594.181
1461.4884,590.517
1462.0233,588.506
1462.5582,587.403
1463.093,588.583
1463.6279,587.318
1464.1628,592.78
1464.6978,594.006
1465.2325,591.077
1465.7675,590.924
1466.3024,591.616
1466.8373,592.764
1467.3721,592.734
1467.907,587.232
1468.4419,591.482
1468.9768,594.056
1469.5117,589.933
1470.0465,591.138
1470.5814,590.756
1471.1163,590.361
1471.6512,589.791
1472.186,588.37
1472.7209,591.164
1473.2559,587.369
1473.7908,588.58
1474.3256,593.268
1474.8605,590.1
1475.3954,593.841
1475.9303,588.92
1476.4652,588.753
1477,594.663
1477.5349,593.416
1478.0698,586.997
1478.6047,594.347
1479.1395,594.579
1479.6744,590.708
1480.2094,589.244
1480.7443,589.624
1481.2791,593.47
1481.814,591.658
1482.3489,591.502
1482.8838,591.925
1483.4187,593.517
1483.9535,589.755
1484.4884,588.695
1485.0233,590.553
1485.5582,591.944
1486.093,591.258
1486.6279,588.942
1487.1628,593.035
1487.6978,591.896
1488.2325,590.661
1488.7675,591.12
1489.3024,595.393
1489.8373,588.566
1490.3721,588.317
1490.907,592.249
1491.4419,592.63
1491.9768,591.871
1492.5117,592.653
1493.0465,591.717
1493.5814,592.979
1494.1163,591.43
1494.6512,590.748
1495.186,593.018
1495.7209,590.996
1496.2559,592.959
1496.7908,588.687
1497.3256,589.484
1497.8605,592.223
1498.3954,592.031
1498.9303,591.508
1499.4652,591.863
1500,592.194
