Date and Time:                Fri Dec 3 17:46:53.000 2021
Software Version:             4.31.30023.0
Temperature (C):              -50
Model:                        DU420_BVF
Data Type:                    Counts (Bg Corrected)
Acquisition Mode:             Accumulate
Trigger Mode:                 Internal
Exposure Time (secs):         0.09999
Accumulate Cycle Time (secs): 0.09999
Frequency (Hz):               10.001
Number of Accumulations:      1000
Readout Mode:                 Full Vertical Binning
Horizontal binning:           1
Extended Dynamic Range:       off
Horizontally flipped:         false
Vertical Shift Speed (usecs): 8.25
Pixel Readout Time (usecs):   30.303
Serial Number:                CCD-22942
Pre-Amplifier Gain:           1x
Spurious Noise Filter Mode:   No Filter
Photon counted:               false
Data Averaging Filter Mode:   No Filter
KY328i:
Serial Number:                
Wavelength (nm):              924.465
Grating Groove Density (l/mm):150.012
Grating Blaze:                500nm
Output Flipper Port:          Direct
Filter:                       6-785 LP



350,585.34
350.53488,589.715
351.06976,589.508
351.60464,589.318
352.13953,590.232
352.67441,592.569
353.20929,587.23
353.7442,589.801
354.27908,592.126
354.81396,584.431
355.34885,588.839
355.88373,591.186
356.41861,588.499
356.95349,588.529
357.48837,588.762
358.02325,593.089
358.55814,593.191
359.09302,588.537
359.6279,590.968
360.16278,590.736
360.69766,587.975
361.23257,590.929
361.76746,588.204
362.30234,590.145
362.83722,590.161
363.3721,584.634
363.90698,590.008
364.44186,587.763
364.97675,586.501
365.51163,589.276
366.04651,592.651
366.58139,587.224
367.11627,588.769
367.65115,588.249
368.18604,589.839
368.72095,590.634
369.25583,587.111
369.79071,587.04
370.32559,586.986
370.86047,586.934
371.39536,587.598
371.93024,588.602
372.46512,590.436
373,591.927
373.53488,591.36
374.06976,588.435
374.60464,588.609
375.13953,591.941
375.67441,588.383
376.20932,590.642
376.7442,590.232
377.27908,591.157
377.81396,589.264
378.34885,582.674
378.88373,585.83
379.41861,591.093
379.95349,590.772
380.48837,588.524
381.02325,589.682
381.55814,585.271
382.09302,585.187
382.6279,589.371
383.16278,589.691
383.69766,588.574
384.23257,590.679
384.76746,592.156
385.30234,587.341
385.83722,588.309
386.3721,591.789
386.90698,592.066
387.44186,591.354
387.97675,588.543
388.51163,586.118
389.04651,587.769
389.58139,588.057
390.11627,587.228
390.65115,588.472
391.18604,586.394
391.72095,586.552
392.25583,586.654
392.79071,591.087
393.32559,587.115
393.86047,588.585
394.39536,591.651
394.93024,591.832
395.46512,591.403
396,588.201
396.53488,589.603
397.06976,587.37
397.60464,589.535
398.13953,588.791
398.67441,589.671
399.20932,589.305
399.7442,589.031
400.27908,589.694
400.81396,587.761
401.34885,590.995
401.88373,593.303
402.41861,591.422
402.95349,584.522
403.48837,587.54
404.02325,592.016
404.55814,592.751
405.09302,590.315
405.6279,588.343
406.16278,586.344
406.69769,589.94
407.23257,588.178
407.76746,586.657
408.30234,587.003
408.83722,590.55
409.3721,587.276
409.90698,588.862
410.44186,590.688
410.97675,590.449
411.51163,587.094
412.04651,586.301
412.58139,587.607
413.11627,589.297
413.65115,589.652
414.18607,587.509
414.72095,586.653
415.25583,589.426
415.79071,589.423
416.32559,586.392
416.86047,591.196
417.39536,590.249
417.93024,588.999
418.46512,592.055
419,590.418
419.53488,585.253
420.06976,588.413
420.60464,589.877
421.13953,589.133
421.67441,589.818
422.20932,590.778
422.7442,591.578
423.27908,587.373
423.81396,589.197
424.34885,593.27
424.88373,588.747
425.41861,590.028
425.95349,592.258
426.48837,588.802
427.02325,589.031
427.55814,590.079
428.09302,591.414
428.6279,585.946
429.16278,593.942
429.69769,593.907
430.23257,590.544
430.76746,588.506
431.30234,589.812
431.83722,590.043
432.3721,589.115
432.90698,589.194
433.44186,589.151
433.97675,589
434.51163,590.04
435.04651,590.195
435.58139,588.532
436.11627,589.392
436.65115,590.137
437.18607,590.284
437.72095,592.572
438.25583,591.284
438.79071,590.252
439.32559,593.395
439.86047,592.858
440.39536,591.377
440.93024,588.869
441.46512,589.122
442,595.44
442.53488,595.534
443.06976,595.011
443.60464,592.639
444.13953,592.938
444.67444,588.94
445.20932,591.134
445.7442,590.483
446.27908,592.764
446.81396,591.61
447.34885,591.039
447.88373,593.781
448.41861,589.743
448.95349,593.446
449.48837,588.198
450.02325,590.68
450.55814,593.359
451.09302,590.494
451.6279,588.909
452.16278,593.697
452.69769,591.017
453.23257,595.986
453.76746,595.104
454.30234,592.099
454.83722,591.003
455.3721,591.413
455.90698,590.603
456.44186,591.977
456.97675,590.373
457.51163,589.681
458.04651,591.774
458.58139,590.604
459.11627,592.758
459.65115,592.716
460.18607,591.662
460.72095,591.919
461.25583,591.942
461.79071,592.748
462.32559,593.712
462.86047,592.263
463.39536,589.369
463.93024,592.294
464.46512,591.246
465,592.679
465.53488,594.206
466.06976,592.268
466.60464,589.549
467.13953,595.198
467.67444,593.796
468.20932,592.892
468.7442,591.822
469.27908,590.484
469.81396,591.497
470.34885,591.255
470.88373,593.436
471.41861,594.147
471.95349,596.979
472.48837,594.613
473.02325,590.013
473.55814,592.765
474.09302,592.24
474.6279,592.406
475.16281,588.606
475.69769,588.423
476.23257,595.382
476.76746,590.176
477.30234,591.888
477.83722,591.403
478.3721,593.712
478.90698,588.492
479.44186,592.761
479.97675,594.016
480.51163,587.946
481.04651,591.145
481.58139,594.716
482.11627,588.167
482.65118,588.881
483.18607,595.215
483.72095,588.379
484.25583,592.616
484.79071,590.254
485.32559,594.417
485.86047,594.656
486.39536,592.613
486.93024,593.756
487.46512,592.074
488,592.467
488.53488,596.55
489.06976,595.39
489.60464,590.458
490.13953,592.755
490.67444,591.96
491.20932,590.035
491.7442,590.927
492.27908,591.48
492.81396,589.753
493.34885,589.254
493.88373,592.302
494.41861,589.915
494.95349,592.252
495.48837,590.968
496.02325,590.554
496.55814,592.271
497.09302,594.824
497.6279,592.527
498.16281,597.926
498.69769,595.557
499.23257,596.195
499.76746,593.988
500.30234,588.238
500.83722,591.01
501.3721,594.033
501.90698,592.201
502.44186,591.938
502.97675,593
503.51163,591.776
504.04651,592.689
504.58139,594.403
505.11627,589.961
505.65118,594.988
506.18607,595.015
506.72095,593.991
507.25583,593.02
507.79071,586.569
508.32559,591.097
508.86047,594.675
509.39536,596.972
509.93024,593.383
510.46512,592.092
511,595.719
511.53488,590.102
512.06976,591.895
512.60468,596.18
513.13953,593.639
513.67444,592.661
514.20929,595.754
514.7442,592.474
515.27905,589.244
515.81396,592.803
516.34882,591.967
516.88373,591.845
517.41864,589.743
517.95349,592.243
518.4884,593.736
519.02325,590.452
519.55817,592.865
520.09302,591.594
520.62793,594.093
521.16278,592.01
521.69769,590.662
522.23254,588.565
522.76746,586.321
523.30231,589.555
523.83722,589.995
524.37207,589.141
524.90698,591.911
525.44189,589.123
525.97675,588.296
526.51166,591.646
527.04651,592.13
527.58142,591.048
528.11627,590.941
528.65118,592.173
529.18604,594.983
529.72095,593.638
530.2558,591.015
530.79071,593.631
531.32556,594.348
531.86047,592.535
532.39539,591.836
532.93024,590.4
533.46515,592.066
534,590.676
534.53491,594.814
535.06976,595.309
535.60468,589.365
536.13953,593.651
536.67444,591.569
537.20929,591.568
537.7442,594.12
538.27905,590.313
538.81396,592.085
539.34882,595.147
539.88373,589.922
540.41864,590.566
540.95349,593.883
541.4884,591.097
542.02325,593.141
542.55817,592.238
543.09302,590.333
543.62793,595.722
544.16278,591.977
544.69769,590.155
545.23254,590.856
545.76746,592.18
546.30231,593.685
546.83722,593.614
547.37213,595.702
547.90698,592.604
548.44189,588.557
548.97675,591.525
549.51166,592.988
550.04651,590.416
550.58142,595.158
551.11627,591.881
551.65118,592.51
552.18604,595.548
552.72095,589.261
553.2558,594.328
553.79071,595.163
554.32556,592.133
554.86047,591.727
555.39539,589.933
555.93024,591.535
556.46515,593.768
557,592.039
557.53491,591.654
558.06976,597.152
558.60468,597.113
559.13953,590.959
559.67444,593.052
560.20929,592.914
560.7442,591.067
561.27905,590.069
561.81396,588.984
562.34882,591.549
562.88373,591.951
563.41864,590.533
563.95349,589.386
564.4884,591.009
565.02325,596.449
565.55817,592.073
566.09302,591.464
566.62793,590.174
567.16278,592.073
567.69769,596.621
568.23254,597.673
568.76746,591.166
569.30231,591.883
569.83722,592.508
570.37213,591.855
570.90698,590.19
571.44189,593.874
571.97675,591.117
572.51166,594.321
573.04651,594.103
573.58142,590.249
574.11627,591.671
574.65118,597.155
575.18604,589.212
575.72095,591.846
576.2558,594.808
576.79071,592.408
577.32556,593.949
577.86047,594.037
578.39539,593.181
578.93024,591.098
579.46515,595.803
580,598.953
580.53491,594.478
581.06976,592.618
581.60468,596.73
582.13953,594.319
582.67444,597.376
583.20929,596.214
583.7442,595.284
584.27905,595.614
584.81396,596.209
585.34888,600.274
585.88373,594.823
586.41864,593.532
586.95349,594.619
587.4884,599.361
588.02325,597.669
588.55817,599.49
589.09302,601.252
589.62793,598.511
590.16278,603.209
590.69769,603.526
591.23254,602.743
591.76746,604.951
592.30231,606.832
592.83722,602.453
593.37213,606.709
593.90698,602.027
594.44189,604.574
594.97675,615.544
595.51166,610.498
596.04651,609.651
596.58142,612.725
597.11627,612.588
597.65118,617.054
598.18604,616.315
598.72095,614.517
599.2558,621.792
599.79071,621.129
600.32556,630.328
600.86047,624.698
601.39539,619.332
601.93024,629.499
602.46515,627.467
603,630.266
603.53491,637.356
604.06976,626.864
604.60468,633.967
605.13953,646.98
605.67444,633.875
606.20929,636.992
606.7442,631.432
607.27905,642.483
607.81396,639.533
608.34888,641.489
608.88373,646.78
609.41864,644.812
609.95349,642.792
610.4884,639.644
611.02325,647.88
611.55817,647.346
612.09302,643.164
612.62793,644.471
613.16278,643.435
613.69769,642.753
614.23254,641.619
614.76746,641.174
615.30231,650.034
615.83722,651.235
616.37213,638.504
616.90698,642.9
617.44189,645.181
617.97675,644.024
618.51166,643.564
619.04651,645.76
619.58142,649.222
620.11627,634.592
620.65118,632.77
621.18604,646.187
621.72095,641.952
622.2558,632.034
622.79071,637.892
623.32556,640.444
623.86047,637.789
624.39539,628.363
624.93024,631.195
625.46515,638.76
626,630.819
626.53491,630.385
627.06976,634.809
627.60468,629.58
628.13953,637.102
628.67444,637.903
629.20929,633.322
629.7442,630.378
630.27905,628.093
630.81396,625.479
631.34888,632.456
631.88373,623.417
632.41864,625.643
632.95349,632.732
633.4884,634.417
634.02325,628.629
634.55817,627.019
635.09302,623.04
635.62793,626.395
636.16278,627.805
636.69769,623.717
637.23254,625.508
637.76746,623.831
638.30231,618.064
638.83722,622.797
639.37213,621.156
639.90698,624.462
640.44189,623.099
640.97675,616.849
641.51166,627.508
642.04651,627.558
642.58142,625.685
643.11627,616.838
643.65118,617.254
644.18604,616.317
644.72095,617.908
645.2558,614.483
645.79071,611.761
646.32562,620.228
646.86047,622.545
647.39539,620.752
647.93024,619.624
648.46515,617.585
649,614.593
649.53491,619.327
650.06976,618.73
650.60468,617.484
651.13953,620.411
651.67444,620.963
652.20929,623.027
652.7442,617.426
653.27905,617.159
653.81396,616.8
654.34888,618.772
654.88373,622.287
655.41864,615.242
655.95349,613.95
656.4884,613.13
657.02325,614.903
657.55817,613.056
658.09302,615.082
658.62793,612.765
659.16278,609.922
659.69769,617.793
660.23254,612.463
660.76746,617.889
661.30231,616.156
661.83722,609.589
662.37213,608.747
662.90698,614.282
663.44189,614.613
663.97675,613.518
664.51166,614.063
665.04651,612.684
665.58142,610.44
666.11627,610.959
666.65118,610.441
667.18604,607.145
667.72095,608.678
668.2558,615.453
668.79071,611.235
669.32562,606.469
669.86047,608.237
670.39539,611.015
670.93024,607.336
671.46515,604.676
672,608.973
672.53491,608.014
673.06976,603.064
673.60468,605.773
674.13953,603.083
674.67444,605.526
675.20929,606.05
675.7442,611.392
676.27905,606.22
676.81396,605.195
677.34888,604.392
677.88373,601.57
678.41864,606.214
678.95349,603.78
679.4884,603.094
680.02325,601.587
680.55817,608.195
681.09302,607.533
681.62793,602.94
682.16278,600.276
682.69769,600.175
683.23254,602.364
683.76746,602.083
684.30237,600.909
684.83722,602.999
685.37213,603.927
685.90698,603.15
686.44189,602.862
686.97675,599.887
687.51166,603.46
688.04651,606.051
688.58142,603.847
689.11627,602.277
689.65118,597.38
690.18604,600.457
690.72095,597.551
691.2558,597.44
691.79071,599.22
692.32562,602.149
692.86047,604.138
693.39539,601.162
693.93024,596.026
694.46515,600.274
695,599.311
695.53491,597.402
696.06976,599.247
696.60468,593.386
697.13953,599.185
697.67444,599.932
698.20929,598.654
698.7442,597.058
699.27905,599.648
699.81396,593.62
700.34888,599.004
700.88373,598.985
701.41864,599.395
701.95349,603.91
702.4884,598.768
703.02325,596.558
703.55817,596.742
704.09302,592.154
704.62793,595.124
705.16278,595.924
705.69769,598.431
706.23254,598.584
706.76746,603.343
707.30237,601.068
707.83722,595.089
708.37213,598.258
708.90698,601.223
709.44189,602.111
709.97675,600.112
710.51166,598.04
711.04651,599.068
711.58142,599.581
712.11627,598.644
712.65118,595.081
713.18604,598.265
713.72095,596.943
714.2558,595.146
714.79071,594.316
715.32562,599.508
715.86047,595.146
716.39539,595.596
716.93024,596.608
717.46515,596.586
718,599.787
718.53491,596.282
719.06976,593.149
719.60468,596.526
720.13953,593.745
720.67444,596.055
721.20929,595.133
721.7442,593.069
722.27911,589.153
722.81396,596.23
723.34888,594.668
723.88373,597.824
724.41864,597.488
724.95349,594.133
725.4884,593.634
726.02325,596.008
726.55817,595.389
727.09302,599.166
727.62793,592.896
728.16278,594.072
728.69769,598.321
729.23254,596.352
729.76746,591.466
730.30237,588.949
730.83722,592.729
731.37213,590.203
731.90698,594.966
732.44189,600.524
732.97675,596.535
733.51166,594.5
734.04651,591.096
734.58142,592.781
735.11627,598.169
735.65118,596.577
736.18604,592.49
736.72095,592.848
737.2558,594.305
737.79071,593.644
738.32562,591.52
738.86047,595.25
739.39539,593.655
739.93024,598.091
740.46515,597.464
741,596.521
741.53491,595.464
742.06976,590.206
742.60468,594.587
743.13953,596.319
743.67444,593.069
744.20929,590.786
744.7442,594.968
745.27911,591.44
745.81396,594.816
746.34888,593.271
746.88373,593.959
747.41864,595.85
747.95349,591.051
748.4884,595.331
749.02325,594.283
749.55817,594.451
750.09302,595.454
750.62793,592.321
751.16278,590.231
751.69769,596.723
752.23254,594.347
752.76746,591.692
753.30237,594.858
753.83722,593.171
754.37213,589.877
754.90698,594.961
755.44189,601.405
755.97675,593.199
756.51166,592.198
757.04651,593.122
757.58142,592.73
758.11627,591.806
758.65118,592.55
759.18604,594.984
759.72095,593.107
760.25586,591.362
760.79071,594.744
761.32562,596.882
761.86047,592.558
762.39539,591.972
762.93024,591.399
763.46515,596.254
764,599.455
764.53491,595.43
765.06976,592.953
765.60468,590.444
766.13953,590.659
766.67444,590.233
767.20929,594.32
767.7442,596.272
768.27911,595.056
768.81396,592.334
769.34888,596.133
769.88373,594.018
770.41864,589.844
770.95349,592.988
771.4884,592.232
772.02325,593.469
772.55817,595.756
773.09302,596.224
773.62793,594.239
774.16278,591.5
774.69769,589.238
775.23254,589.91
775.76746,589.57
776.30237,595.229
776.83722,589.507
777.37213,592.231
777.90698,595.016
778.44189,592.991
778.97675,592.827
779.51166,592.136
780.04651,591.402
780.58142,586.82
781.11627,588.994
781.65118,592.338
782.18604,589.837
782.72095,590.93
783.25586,589.167
783.79071,590.344
784.32562,592.822
784.86047,593.517
785.39539,588.47
785.93024,586.724
786.46515,593.169
787,591.049
787.53491,590.423
788.06976,592.808
788.60468,590.541
789.13953,589.835
789.67444,587.092
790.20929,593.316
790.7442,594.701
791.27911,591.841
791.81396,593.824
792.34888,595.847
792.88373,591.17
793.41864,588.163
793.95349,593.319
794.4884,591.154
795.02325,588.623
795.55817,591.862
796.09302,585.861
796.62793,592.958
797.16278,593.374
797.69769,590.121
798.23254,591.259
798.76746,591.589
799.30237,593.795
799.83722,592.343
800.37213,591.938
800.90698,592.014
801.44189,589.228
801.97675,591.776
802.51166,593.751
803.04651,592.659
803.58142,588.295
804.11627,591.311
804.65118,589.633
805.18604,588.007
805.72095,590.098
806.25586,591.001
806.79071,592
807.32562,595.316
807.86047,588.522
808.39539,591.669
808.93024,590.926
809.46515,588.836
810,594.036
810.53491,596.067
811.06976,594.419
811.60468,594.851
812.13953,587.213
812.67444,593.669
813.20929,591.14
813.7442,591.606
814.27911,594.513
814.81396,590.833
815.34888,592.471
815.88373,594.757
816.41864,593.057
816.95349,591.016
817.4884,593.052
818.02325,594.149
818.55817,596.146
819.09302,593.366
819.62793,590.365
820.16278,591.248
820.69769,592.199
821.2326,591.869
821.76746,592.815
822.30237,592.197
822.83722,592.78
823.37213,594.03
823.90698,591.123
824.44189,590.197
824.97675,596.074
825.51166,607.863
826.04651,622.108
826.58142,630.341
827.11627,631.917
827.65118,617.848
828.18604,618.595
828.72095,611.383
829.25586,606.815
829.79071,610.461
830.32562,610.657
830.86047,609.518
831.39539,611.673
831.93024,605.468
832.46515,602.982
833,603.126
833.53491,598.607
834.06976,597.481
834.60468,589.632
835.13953,595.157
835.67444,597.127
836.20929,592.033
836.7442,595.796
837.27911,601.832
837.81396,599.295
838.34888,601.543
838.88373,599.085
839.41864,597.88
839.95349,594.165
840.4884,592.407
841.02325,592.662
841.55817,594.412
842.09302,592.963
842.62793,591.496
843.16278,593.633
843.69769,593.076
844.2326,596.346
844.76746,596.378
845.30237,592.892
845.83722,594.948
846.37213,590.683
846.90698,588.958
847.44189,595.533
847.97675,593.933
848.51166,588.767
849.04651,589.491
849.58142,591.507
850.11627,589.257
850.65118,589.558
851.18604,589.894
851.72095,592.53
852.25586,590.515
852.79071,589.994
853.32562,591.923
853.86047,589.046
854.39539,587.761
854.93024,588.846
855.46515,589.597
856,592.96
856.53491,592.426
857.06976,588.951
857.60468,590.804
858.13953,590.309
858.67444,588.586
859.20935,590.42
859.7442,591.09
860.27911,592.354
860.81396,587.62
861.34888,588.827
861.88373,594.247
862.41864,591.685
862.95349,590.008
863.4884,594.136
864.02325,592.438
864.55817,591.636
865.09302,588.674
865.62793,591.514
866.16278,590.138
866.69769,587.682
867.2326,589.476
867.76746,592.476
868.30237,589.838
868.83722,589.747
869.37213,592.314
869.90698,591.476
870.44189,588.555
870.97675,591.176
871.51166,593.777
872.04651,590.891
872.58142,590.096
873.11627,591.838
873.65118,590.301
874.18604,588.323
874.72095,590.922
875.25586,589.091
875.79071,587.866
876.32562,588.667
876.86047,592.142
877.39539,588.979
877.93024,590.207
878.46515,592.117
879,593.135
879.53491,591.125
880.06976,591.151
880.60468,590.77
881.13953,591.99
881.67444,594.435
882.20935,592.83
882.7442,590.709
883.27911,589.812
883.81396,594.438
884.34888,597.144
884.88373,606.547
885.41864,612.265
885.95349,613.242
886.4884,608.575
887.02325,607.757
887.55817,598.933
888.09302,594.563
888.62793,597.383
889.16278,596.463
889.69769,591.971
890.2326,592.209
890.76746,595.944
891.30237,593.147
891.83722,590.048
892.37213,589.969
892.90698,591.664
893.44189,590.733
893.97675,588.112
894.51166,591.321
895.04651,588.112
895.58142,588.542
896.11627,589.51
896.65118,587.268
897.18604,596.165
897.72095,591.746
898.25586,597.826
898.79071,593.383
899.32562,587.637
899.86047,592.888
900.39539,593.369
900.93024,588.971
901.46515,592.122
902,588.433
902.53491,593.691
903.06976,592.834
903.60468,586.678
904.13953,590.16
904.67444,593.36
905.20935,587.388
905.7442,592.28
906.27911,589.72
906.81396,593.951
907.34888,593.302
907.88373,591.759
908.41864,597.209
908.95349,592.996
909.4884,594.527
910.02325,593.971
910.55817,589.271
911.09302,590.755
911.62793,590.598
912.16278,589.584
912.69769,591.825
913.2326,589.325
913.76746,587.724
914.30237,588.593
914.83722,592.923
915.37213,590.192
915.90698,593.454
916.44189,590.247
916.97675,585.514
917.51166,590.264
918.04651,588.943
918.58142,592.973
919.11627,596.07
919.65118,595.053
920.1861,588.691
920.72095,595.247
921.25586,596.378
921.79071,597.264
922.32562,593.403
922.86047,593.526
923.39539,592.462
923.93024,590.375
924.46515,585.365
925,591.024
925.53491,591.336
926.06976,589.585
926.60468,589.218
927.13953,587.108
927.67444,587.998
928.20935,587.009
928.7442,589.597
929.27911,591.431
929.81396,589.184
930.34888,589.819
930.88373,587.119
931.41864,588.69
931.95349,588.821
932.4884,590.092
933.02325,591.463
933.55817,588.673
934.09302,587.299
934.62793,587.22
935.16278,591.825
935.69769,588.878
936.2326,588.455
936.76746,590.012
937.30237,587.602
937.83722,590.164
938.37213,586.576
938.90698,590.17
939.44189,591.787
939.97675,590.349
940.51166,591.877
941.04651,588.935
941.58142,585.43
942.11627,585.14
942.65118,589.568
943.1861,592.448
943.72095,591.856
944.25586,590.049
944.79071,590.145
945.32562,589.685
945.86047,592.192
946.39539,593.039
946.93024,592.028
947.46515,590.18
948,589.786
948.53491,587.753
949.06976,593.207
949.60468,590.087
950.13953,589.235
950.67444,590.81
951.20935,591.253
951.7442,593.59
952.27911,588.565
952.81396,593.533
953.34888,592.111
953.88373,589.896
954.41864,592.924
954.95349,590.886
955.4884,594.462
956.02325,591.365
956.55817,590.052
957.09302,593.444
957.62793,593.682
958.16284,587.526
958.69769,591.802
959.2326,587.601
959.76746,589.292
960.30237,590.511
960.83722,590.614
961.37213,586.582
961.90698,587.956
962.44189,592.078
962.97675,589.372
963.51166,589.555
964.04651,591.476
964.58142,589.868
965.11627,589.952
965.65118,589.983
966.1861,590.422
966.72095,588.491
967.25586,590.807
967.79071,590.493
968.32562,587.005
968.86047,586.768
969.39539,592.218
969.93024,594.124
970.46515,593.067
971,594.538
971.53491,588.698
972.06976,588.941
972.60468,592.489
973.13953,589.269
973.67444,592.09
974.20935,588.922
974.7442,586.241
975.27911,591.536
975.81396,594.339
976.34888,588.092
976.88373,587.511
977.41864,587.314
977.95349,588.691
978.4884,592.076
979.02325,589.044
979.55817,586.796
980.09302,591.345
980.62793,590.315
981.16284,589.017
981.69769,590.947
982.2326,590.086
982.76746,591.096
983.30237,593.583
983.83722,594.82
984.37213,592.305
984.90698,590.657
985.44189,592.089
985.97675,597.127
986.51166,593.393
987.04651,589.78
987.58142,591.322
988.11627,592.038
988.65118,593.498
989.1861,590.262
989.72095,586.843
990.25586,589.539
990.79071,588.485
991.32562,588.885
991.86047,589.857
992.39539,584.187
992.93024,588.112
993.46515,587.644
994,588.004
994.53491,593.731
995.06976,593.245
995.60468,592.622
996.13959,595.432
996.67444,594.657
997.20935,593.075
997.7442,591.47
998.27911,593.49
998.81396,592.934
999.34888,592.565
999.88373,590.532
1000.4186,592.787
1000.9535,586.541
1001.4884,585.163
1002.0233,592.485
1002.5582,591.16
1003.093,587.138
1003.6279,590.257
1004.1628,590.579
1004.6977,588.171
1005.2326,590.265
1005.7675,589.442
1006.3024,591.596
1006.8372,591.161
1007.3721,584.267
1007.907,587.116
1008.4419,592.173
1008.9767,588.475
1009.5117,585.801
1010.0465,589.262
1010.5814,590.305
1011.1163,588.436
1011.6512,587.73
1012.1861,590.619
1012.7209,591.173
1013.2559,586.259
1013.7907,587.101
1014.3256,589.868
1014.8605,587.723
1015.3954,588.758
1015.9302,591.569
1016.4651,588.773
1017,589.013
1017.5349,586.81
1018.0698,587.011
1018.6047,589.554
1019.1396,588.375
1019.6744,587.844
1020.2094,588.6
1020.7442,589.614
1021.2791,590.911
1021.814,589.612
1022.3489,587.925
1022.8837,590.5
1023.4186,593.046
1023.9535,590.346
1024.4884,592.494
1025.0233,588.081
1025.5581,585.657
1026.093,587.948
1026.6279,592.355
1027.1628,592.706
1027.6978,590.433
1028.2325,588.856
1028.7675,591.152
1029.3024,591.238
1029.8373,589.23
1030.3721,586.922
1030.907,587.922
1031.4419,588.198
1031.9768,589.727
1032.5116,591.057
1033.0465,587.818
1033.5814,590.038
1034.1163,588.528
1034.6512,586.948
1035.186,589.96
1035.7209,590.066
1036.2559,589.978
1036.7908,588.464
1037.3256,587.161
1037.8605,586.281
1038.3954,586.258
1038.9303,589.963
1039.4651,589.287
1040,587.365
1040.5349,586.642
1041.0698,588.844
1041.6046,589.515
1042.1395,590.866
1042.6744,589.856
1043.2094,587.523
1043.7443,593.075
1044.2791,590.841
1044.814,590.984
1045.3489,594.327
1045.8838,585.077
1046.4186,588.463
1046.9535,590.949
1047.4884,588.375
1048.0233,585.72
1048.5581,590.161
1049.093,591.704
1049.6279,590.387
1050.1628,592.23
1050.6978,587.431
1051.2325,591.025
1051.7675,588.185
1052.3024,589.777
1052.8373,591.883
1053.3721,592.27
1053.907,590.947
1054.4419,588.676
1054.9768,590.779
1055.5116,586.084
1056.0465,589.893
1056.5814,589.824
1057.1163,592.652
1057.6512,588.549
1058.186,589.496
1058.7209,592.731
1059.2559,591.871
1059.7908,588.311
1060.3256,588.054
1060.8605,590.536
1061.3954,590.278
1061.9303,588.694
1062.4651,588.726
1063,585.579
1063.5349,587.111
1064.0698,590.85
1064.6047,589.047
1065.1395,590.434
1065.6744,590.528
1066.2094,585.379
1066.7443,592.789
1067.2791,590.745
1067.814,587.749
1068.3489,590.152
1068.8838,589.412
1069.4186,589.863
1069.9535,587.527
1070.4884,586.768
1071.0233,591.925
1071.5581,592.918
1072.093,590.505
1072.6279,590.029
1073.1628,591.572
1073.6978,587.902
1074.2325,589.801
1074.7675,589.446
1075.3024,587.86
1075.8373,589.47
1076.3721,587.624
1076.907,587.125
1077.4419,590.318
1077.9768,591.883
1078.5116,588.649
1079.0465,587.785
1079.5814,587.967
1080.1163,588.475
1080.6512,589.538
1081.186,587.842
1081.7209,590.365
1082.2559,590.587
1082.7908,591.511
1083.3256,588.959
1083.8605,587.294
1084.3954,587.636
1084.9303,587.908
1085.4651,589.797
1086,589.773
1086.5349,589.597
1087.0698,590.017
1087.6047,591.694
1088.1395,588.015
1088.6744,588.906
1089.2094,589.855
1089.7443,588.516
1090.2791,588.479
1090.814,589.314
1091.3489,591.38
1091.8838,588.973
1092.4186,589.328
1092.9535,589.561
1093.4884,589.132
1094.0233,588.073
1094.5581,589.523
1095.093,589.309
1095.6279,589.355
1096.1628,588.255
1096.6978,590.008
1097.2325,589.785
1097.7675,591.428
1098.3024,589.471
1098.8373,586.612
1099.3721,589.345
1099.907,592.093
1100.4419,587.915
1100.9768,589.377
1101.5116,585.894
1102.0465,587.54
1102.5814,588.762
1103.1163,591.67
1103.6512,593.977
1104.186,589.612
1104.7209,586.536
1105.2559,588.742
1105.7908,589.661
1106.3256,584.97
1106.8605,586.242
1107.3954,590.136
1107.9303,589.876
1108.4651,592.018
1109,587.225
1109.5349,585.168
1110.0698,588.019
1110.6047,589.213
1111.1395,588.304
1111.6744,585.038
1112.2094,587.258
1112.7443,589.221
1113.2791,591.038
1113.814,588.87
1114.3489,587.904
1114.8838,587.487
1115.4186,586.99
1115.9535,586.663
1116.4884,589.292
1117.0233,590.294
1117.5581,588.316
1118.093,584.497
1118.6279,585.73
1119.1628,586.016
1119.6978,587.367
1120.2325,591.399
1120.7675,587.439
1121.3024,591.993
1121.8373,593.585
1122.3721,589.76
1122.907,587.682
1123.4419,588.501
1123.9768,588.913
1124.5116,586.447
1125.0465,587.175
1125.5814,588.034
1126.1163,590.043
1126.6512,589.821
1127.186,588.11
1127.7209,587.699
1128.2559,591.702
1128.7908,591.172
1129.3256,590.001
1129.8605,589.92
1130.3954,587.548
1130.9303,586.354
1131.4651,589.081
1132,590.056
1132.5349,589.18
1133.0698,585.85
1133.6047,587.966
1134.1395,590.024
1134.6744,587.178
1135.2094,585.714
1135.7443,587.866
1136.2791,588.653
1136.814,589.241
1137.3489,586.525
1137.8838,589.254
1138.4186,589.253
1138.9535,586.997
1139.4884,589.007
1140.0233,589.287
1140.5581,592.373
1141.093,590.981
1141.6279,589.736
1142.1628,591.685
1142.6978,588.077
1143.2325,588.31
1143.7675,589.758
1144.3024,589.362
1144.8373,589.186
1145.3721,587.565
1145.907,588.949
1146.4419,588.236
1146.9768,584.93
1147.5116,586.812
1148.0465,587.008
1148.5814,589.825
1149.1163,590.854
1149.6512,590.283
1150.186,591.916
1150.7209,589.661
1151.2559,588.719
1151.7908,586.113
1152.3256,587.615
1152.8605,589.886
1153.3954,591.361
1153.9303,588.808
1154.4651,585.608
1155,589.219
1155.5349,588.294
1156.0698,588.341
1156.6047,590.93
1157.1395,586.363
1157.6744,585.304
1158.2094,588.838
1158.7443,594.995
1159.2791,588.978
1159.814,590.98
1160.3489,589.565
1160.8838,588.25
1161.4186,588.774
1161.9535,588.228
1162.4884,591.072
1163.0233,588.743
1163.5582,589.305
1164.093,589.095
1164.6279,589.87
1165.1628,588.261
1165.6978,587.041
1166.2325,592.617
1166.7675,590.847
1167.3024,587.262
1167.8373,586.906
1168.3721,588.862
1168.907,589.052
1169.4419,587.843
1169.9768,588.398
1170.5116,590.852
1171.0465,589.488
1171.5814,587.933
1172.1163,589.06
1172.6512,591.251
1173.186,588.703
1173.7209,589.965
1174.2559,589.896
1174.7908,590.703
1175.3256,587.532
1175.8605,585.943
1176.3954,588.181
1176.9303,590.045
1177.4651,590.009
1178,590.041
1178.5349,587.029
1179.0698,587.411
1179.6047,592.467
1180.1395,589.25
1180.6744,590.005
1181.2094,589.924
1181.7443,590.27
1182.2791,593.888
1182.814,591.772
1183.3489,586.475
1183.8838,586.747
1184.4186,588.784
1184.9535,589.753
1185.4884,588.81
1186.0233,588.766
1186.5582,591.173
1187.093,587.239
1187.6279,589.524
1188.1628,586.607
1188.6978,588.979
1189.2325,590.625
1189.7675,585.699
1190.3024,589.315
1190.8373,591.841
1191.3721,585.067
1191.907,587.702
1192.4419,589.915
1192.9768,591.473
1193.5116,591.501
1194.0465,588.624
1194.5814,588.094
1195.1163,590.103
1195.6512,590.64
1196.186,588.954
1196.7209,591.374
1197.2559,590.458
1197.7908,590.88
1198.3256,590.003
1198.8605,588.803
1199.3954,586.021
1199.9303,588.775
1200.4651,588.958
1201,586.325
1201.5349,589.507
1202.0698,586.38
1202.6047,589.181
1203.1395,592.376
1203.6744,588.199
1204.2094,588.906
1204.7443,586.936
1205.2791,589.107
1205.814,590.934
1206.3489,587.823
1206.8838,590.113
1207.4186,584.728
1207.9535,584.469
1208.4884,586.467
1209.0233,589.978
1209.5582,590.044
1210.093,589.389
1210.6279,587.728
1211.1628,589.173
1211.6978,587.108
1212.2325,590.724
1212.7675,591.135
1213.3024,587.436
1213.8373,587.681
1214.3721,586.835
1214.907,586.032
1215.4419,590.801
1215.9768,592.489
1216.5116,588.654
1217.0465,588.72
1217.5814,587.171
1218.1163,586.023
1218.6512,588.941
1219.186,586.776
1219.7209,587.786
1220.2559,586.303
1220.7908,584.452
1221.3256,594.636
1221.8605,592.43
1222.3954,587.025
1222.9303,583.736
1223.4651,588.527
1224,588.638
1224.5349,586.342
1225.0698,589.195
1225.6047,588.74
1226.1395,590.936
1226.6744,588.432
1227.2094,587.072
1227.7443,588.507
1228.2791,586.518
1228.814,587.731
1229.3489,586.02
1229.8838,588.312
1230.4186,587.729
1230.9535,588.833
1231.4884,587.423
1232.0233,587.245
1232.5582,588.283
1233.093,588.706
1233.6279,590.598
1234.1628,587.211
1234.6978,587.802
1235.2325,587.797
1235.7675,591.14
1236.3024,592.315
1236.8373,587.472
1237.3721,586.936
1237.907,588.14
1238.4419,592.626
1238.9768,588.175
1239.5117,587.308
1240.0465,586.39
1240.5814,590.255
1241.1163,591.84
1241.6512,588.332
1242.186,587.831
1242.7209,588.921
1243.2559,590.164
1243.7908,590.844
1244.3256,587.852
1244.8605,586.581
1245.3954,589.571
1245.9303,589.178
1246.4651,588.972
1247,589.101
1247.5349,591.855
1248.0698,589.578
1248.6047,586.144
1249.1395,588.084
1249.6744,586.935
1250.2094,588.479
1250.7443,586.563
1251.2791,585.99
1251.814,588.339
1252.3489,584.958
1252.8838,586.146
1253.4186,591.27
1253.9535,588.339
1254.4884,591.09
1255.0233,590.747
1255.5582,589.799
1256.093,590.823
1256.6279,586.513
1257.1628,587.902
1257.6978,587.133
1258.2325,590.764
1258.7675,588.177
1259.3024,588.915
1259.8373,589.262
1260.3721,592.14
1260.907,591.662
1261.4419,589.322
1261.9768,591.269
1262.5117,590.844
1263.0465,587.825
1263.5814,588.032
1264.1163,589.257
1264.6512,589.628
1265.186,590.368
1265.7209,586.973
1266.2559,589.829
1266.7908,587.601
1267.3256,590.198
1267.8605,590.814
1268.3954,589.384
1268.9303,582.436
1269.4651,588.755
1270,587.122
1270.5349,587.909
1271.0698,586.71
1271.6047,588.907
1272.1395,591.116
1272.6744,589.92
1273.2094,589.301
1273.7443,587.939
1274.2791,587.239
1274.814,590.64
1275.3489,587.532
1275.8838,588.443
1276.4186,591.526
1276.9535,585.659
1277.4884,585.604
1278.0233,588.2
1278.5582,587.28
1279.093,589.262
1279.6279,589.093
1280.1628,587.823
1280.6978,588.383
1281.2325,590.144
1281.7675,591.909
1282.3024,589.624
1282.8373,586.708
1283.3721,588.13
1283.907,591.706
1284.4419,590.915
1284.9768,588.384
1285.5117,587.937
1286.0465,587.821
1286.5814,588.286
1287.1163,588.867
1287.6512,589.413
1288.186,588.631
1288.7209,586.414
1289.2559,587.1
1289.7908,587.783
1290.3256,590.604
1290.8605,589.702
1291.3954,586.749
1291.9303,587.775
1292.4651,589.068
1293,585.267
1293.5349,589.181
1294.0698,588.166
1294.6047,587.237
1295.1395,588.586
1295.6744,590.487
1296.2094,591.378
1296.7443,589.99
1297.2791,588.911
1297.814,588.041
1298.3489,588.235
1298.8838,588.968
1299.4186,589.455
1299.9535,588.751
1300.4884,589.149
1301.0233,588.459
1301.5582,588.46
1302.093,587.056
1302.6279,590.146
1303.1628,589.312
1303.6978,589.713
1304.2325,590.375
1304.7675,587.344
1305.3024,587.126
1305.8373,590.377
1306.3721,588.434
1306.907,588.452
1307.4419,588.27
1307.9768,590.743
1308.5117,589.859
1309.0465,587.183
1309.5814,589.488
1310.1163,586.435
1310.6512,586.642
1311.186,587.671
1311.7209,588.767
1312.2559,588.353
1312.7908,587.033
1313.3256,589.238
1313.8605,592.696
1314.3954,590.151
1314.9303,588.051
1315.4651,587.961
1316,587.493
1316.5349,590.787
1317.0698,588.167
1317.6047,589.604
1318.1395,588.496
1318.6744,586.93
1319.2094,587.77
1319.7443,589.602
1320.2791,586.113
1320.814,589.648
1321.3489,592.277
1321.8838,590.031
1322.4186,592.195
1322.9535,587.073
1323.4884,592.83
1324.0233,588.974
1324.5582,586.986
1325.093,587.007
1325.6279,588.619
1326.1628,588.83
1326.6978,586.087
1327.2325,591.446
1327.7675,586.99
1328.3024,584.765
1328.8373,588.359
1329.3721,589.931
1329.907,587.464
1330.4419,587.069
1330.9768,586.018
1331.5117,587.164
1332.0465,584.002
1332.5814,588.737
1333.1163,588.017
1333.6512,583.987
1334.186,587.418
1334.7209,588.94
1335.2559,587.876
1335.7908,588.067
1336.3256,587.802
1336.8605,586.327
1337.3954,589.976
1337.9303,592.314
1338.4652,587.994
1339,590.258
1339.5349,588.994
1340.0698,587.916
1340.6047,587.12
1341.1395,587.837
1341.6744,588.092
1342.2094,586.983
1342.7443,590.046
1343.2791,588.991
1343.814,588.448
1344.3489,586.809
1344.8838,590.762
1345.4186,587.943
1345.9535,588.731
1346.4884,591.434
1347.0233,589.758
1347.5582,589.442
1348.093,591.468
1348.6279,588.257
1349.1628,588.522
1349.6978,590.253
1350.2325,586.372
1350.7675,586.871
1351.3024,587.02
1351.8373,586.005
1352.3721,587.084
1352.907,586.852
1353.4419,587.694
1353.9768,589.543
1354.5117,586.779
1355.0465,588.809
1355.5814,587.861
1356.1163,584.88
1356.6512,583.07
1357.186,588.855
1357.7209,589.73
1358.2559,590.713
1358.7908,588.361
1359.3256,589.925
1359.8605,587.116
1360.3954,588.976
1360.9303,588.014
1361.4652,591.377
1362,591.136
1362.5349,588.085
1363.0698,593.239
1363.6047,588.056
1364.1395,591.374
1364.6744,588.82
1365.2094,588.096
1365.7443,586.946
1366.2791,589.817
1366.814,588.794
1367.3489,584.763
1367.8838,588.321
1368.4186,588.433
1368.9535,586.711
1369.4884,592.015
1370.0233,585.904
1370.5582,588.209
1371.093,587.808
1371.6279,586.956
1372.1628,590.912
1372.6978,593.945
1373.2325,584.886
1373.7675,584.878
1374.3024,591.857
1374.8373,591.79
1375.3721,583.934
1375.907,588.312
1376.4419,591.47
1376.9768,591.094
1377.5117,588.556
1378.0465,586.714
1378.5814,591.974
1379.1163,587.922
1379.6512,587.914
1380.186,586.025
1380.7209,590.147
1381.2559,592.469
1381.7908,588.071
1382.3256,588.699
1382.8605,590.498
1383.3954,591.468
1383.9303,585.085
1384.4652,587.297
1385,588.214
1385.5349,588.542
1386.0698,587.103
1386.6047,590.566
1387.1395,589.268
1387.6744,587.096
1388.2094,584.001
1388.7443,588.553
1389.2791,591.581
1389.814,585.083
1390.3489,585.953
1390.8838,589.571
1391.4186,588.033
1391.9535,587.667
1392.4884,592.587
1393.0233,592.77
1393.5582,589.299
1394.093,584.435
1394.6279,582.462
1395.1628,585.463
1395.6978,586.902
1396.2325,588.663
1396.7675,592.036
1397.3024,589.047
1397.8373,592.762
1398.3721,587.169
1398.907,591.894
1399.4419,585.692
1399.9768,588.097
1400.5117,588.786
1401.0465,587.238
1401.5814,592.702
1402.1163,588.998
1402.6512,587.778
1403.186,588.527
1403.7209,590.195
1404.2559,587.287
1404.7908,589.554
1405.3256,589.313
1405.8605,586.001
1406.3954,587.999
1406.9303,585.982
1407.4652,588.301
1408,589.05
1408.5349,588.844
1409.0698,587.487
1409.6047,587.534
1410.1395,589.863
1410.6744,592.198
1411.2094,589.348
1411.7443,593.964
1412.2791,586.963
1412.814,588.325
1413.3489,587.456
1413.8838,590.71
1414.4186,587.231
1414.9535,589.88
1415.4884,591.994
1416.0233,589.649
1416.5582,587.134
1417.093,588.823
1417.6279,587.085
1418.1628,589.874
1418.6978,591.193
1419.2325,590.642
1419.7675,589.321
1420.3024,589.256
1420.8373,587.301
1421.3721,589.372
1421.907,587.235
1422.4419,585.349
1422.9768,589.888
1423.5117,586.264
1424.0465,587.88
1424.5814,591.963
1425.1163,587.818
1425.6512,590.737
1426.186,592.459
1426.7209,586.607
1427.2559,587.771
1427.7908,592.701
1428.3256,591.477
1428.8605,587.287
1429.3954,592.238
1429.9303,590.876
1430.4652,588.967
1431,588.852
1431.5349,586.788
1432.0698,588.997
1432.6047,586.963
1433.1395,590.959
1433.6744,591.033
1434.2094,591.729
1434.7443,586.352
1435.2791,588.453
1435.814,590.452
1436.3489,585.523
1436.8838,588.91
1437.4187,586.685
1437.9535,590.298
1438.4884,592.061
1439.0233,588.778
1439.5582,588.496
1440.093,589.323
1440.6279,587.141
1441.1628,588.695
1441.6978,590.814
1442.2325,593.013
1442.7675,589.03
1443.3024,594.508
1443.8373,592.96
1444.3721,587.896
1444.907,588.137
1445.4419,587.35
1445.9768,591.017
1446.5117,587.74
1447.0465,586.731
1447.5814,588.086
1448.1163,589.969
1448.6512,588.786
1449.186,586.191
1449.7209,586.824
1450.2559,586.296
1450.7908,584.783
1451.3256,593.032
1451.8605,592.773
1452.3954,589.914
1452.9303,588.015
1453.4652,584.667
1454,591.355
1454.5349,589.287
1455.0698,587.885
1455.6047,590.065
1456.1395,587.95
1456.6744,585.712
1457.2094,589.132
1457.7443,587.621
1458.2791,589.468
1458.814,588.298
1459.3489,589.63
1459.8838,592.063
1460.4187,587.953
1460.9535,589.218
1461.4884,592.493
1462.0233,591.752
1462.5582,586.003
1463.093,589.391
1463.6279,589.467
1464.1628,588.914
1464.6978,589.663
1465.2325,589.381
1465.7675,593.285
1466.3024,590.724
1466.8373,586.847
1467.3721,592.78
1467.907,587.809
1468.4419,587.621
1468.9768,591.046
1469.5117,585.934
1470.0465,589.432
1470.5814,590.654
1471.1163,587.915
1471.6512,589.047
1472.186,587.301
1472.7209,585.489
1473.2559,587.838
1473.7908,590.234
1474.3256,586.997
1474.8605,590.588
1475.3954,589.859
1475.9303,590.728
1476.4652,588.276
1477,590.088
1477.5349,585.954
1478.0698,591.991
1478.6047,586.721
1479.1395,586.212
1479.6744,588.211
1480.2094,587.579
1480.7443,587.847
1481.2791,591.992
1481.814,588.218
1482.3489,588.879
1482.8838,589.942
1483.4187,590.587
1483.9535,588.316
1484.4884,585.945
1485.0233,589.699
1485.5582,589.111
1486.093,589.215
1486.6279,585.07
1487.1628,588.082
1487.6978,590.954
1488.2325,588.951
1488.7675,588.362
1489.3024,586.8
1489.8373,589.435
1490.3721,590.163
1490.907,592.798
1491.4419,590.569
1491.9768,591.348
1492.5117,588.922
1493.0465,590.018
1493.5814,587.711
1494.1163,587.464
1494.6512,590.65
1495.186,591.225
1495.7209,587.036
1496.2559,586.919
1496.7908,585.379
1497.3256,592.724
1497.8605,590.976
1498.3954,586.048
1498.9303,587.344
1499.4652,592.864
1500,593.257
